trials.thisTrialN,trials.stepSize,trials.intensity,key_resp_2.keys,key_resp_2.rt,key_resp_2.started,key_resp_2.stopped,text.started,text.stopped,title_text.started,title_text.stopped,text_2.started,text_2.stopped,key_resp_3.keys,key_resp_3.corr,key_resp_3.rt,key_resp_3.started,key_resp_3.stopped,text_3.started,text_3.stopped,key_resp_4.keys,key_resp_4.corr,key_resp_4.rt,key_resp_4.started,key_resp_4.stopped,text_4.started,text_4.stopped,key_resp_5.keys,key_resp_5.corr,key_resp_5.rt,key_resp_5.started,key_resp_5.stopped,sound_1.started,sound_1.stopped,trials.response,key_resp.rt,key_resp.started,key_resp.stopped,question_text.started,question_text.stopped,level_text.started,level_text.stopped,text_6.started,text_6.stopped,last_level_text.started,last_level_text.stopped,text_5.started,text_5.stopped,key_resp_6.keys,key_resp_6.corr,key_resp_6.rt,key_resp_6.started,key_resp_6.stopped,participant,session,date,expName,psychopyVersion,frameRate,
,,,space,0.9100709000485949,19.052209600049537,None,,,,,,,,,,,,,,,,,,,,,,,,,,,,,,,,,,,,,,,,,,,,,,,,001,2020_Oct_20_1545,headphone_calibration,2020.1.3,60.11100096586308,
,,,,,,,19.052209600049537,None,19.052209600049537,None,19.979705700010527,None,space,0,0.7063899000058882,19.979705700010527,None,,,,,,,,,,,,,,,,,,,,,,,,,,,,,,,,,,,,,001,2020_Oct_20_1545,headphone_calibration,2020.1.3,60.11100096586308,
,,,,,,,,,,,,,,,,,,20.711855500005186,None,space,1,0.5415591999772005,20.711855500005186,None,,,,,,,,,,,,,,,,,,,,,,,,,,,,,,001,2020_Oct_20_1545,headphone_calibration,2020.1.3,60.11100096586308,
,,,,,,,,,,,,,,,,,,,,,,,,,21.278488200041465,None,space,1,0.5246793000260368,21.278488200041465,None,,,,,,,,,,,,,,,,,,,,,,,001,2020_Oct_20_1545,headphone_calibration,2020.1.3,60.11100096586308,
0,0.3,0.1,,,,,,,,,,,,,,,,,,,,,,,,,,,,,,21.82789095005137,None,0,0.49550250003812835,21.82752910000272,None,21.82752910000272,None,21.82752910000272,None,,,,,,,,,,,,,001,2020_Oct_20_1545,headphone_calibration,2020.1.3,60.11100096586308,
1,0.3,0.19952623149688797,,,,,,,,,,,,,,,,,,,,,,,,,,,,,,22.360241800022777,None,0,0.21922590001486242,22.35215380002046,None,22.35215380002046,None,22.35215380002046,None,,,,,,,,,,,,,001,2020_Oct_20_1545,headphone_calibration,2020.1.3,60.11100096586308,
2,0.3,0.39810717055349726,,,,,,,,,,,,,,,,,,,,,,,,,,,,,,22.59359505001339,None,0,0.13500290003139526,22.593513700005133,None,22.593513700005133,None,22.593513700005133,None,,,,,,,,,,,,,001,2020_Oct_20_1545,headphone_calibration,2020.1.3,60.11100096586308,
3,0.3,0.7943282347242815,,,,,,,,,,,,,,,,,,,,,,,,,,,,,,22.743475249997573,None,0,0.16405920003307983,22.743312200007495,None,22.743312200007495,None,22.743312200007495,None,,,,,,,,,,,,,001,2020_Oct_20_1545,headphone_calibration,2020.1.3,60.11100096586308,
4,0.3,1,,,,,,,,,,,,,,,,,,,,,,,,,,,,,,22.92658975001541,None,0,0.13469370000530034,22.92657330003567,None,22.92657330003567,None,22.92657330003567,None,,,,,,,,,,,,,001,2020_Oct_20_1545,headphone_calibration,2020.1.3,60.11100096586308,
5,0.3,1,,,,,,,,,,,,,,,,,,,,,,,,,,,,,,23.07635095002479,None,1,0.28388669999549165,23.076704900013283,None,23.076704900013283,None,23.076704900013283,None,,,,,,,,,,,,,001,2020_Oct_20_1545,headphone_calibration,2020.1.3,60.11100096586308,
6,0.3,0.5011872336272724,,,,,,,,,,,,,,,,,,,,,,,,,,,,,,23.376146850030636,None,1,0.142888700007461,23.37620760005666,None,23.37620760005666,None,23.37620760005666,None,,,,,,,,,,,,,001,2020_Oct_20_1545,headphone_calibration,2020.1.3,60.11100096586308,
7,0.3,0.25118864315095807,,,,,,,,,,,,,,,,,,,,,,,,,,,,,,23.542724050028482,None,1,0.12456879997625947,23.543193300021812,None,23.543193300021812,None,23.543193300021812,None,,,,,,,,,,,,,001,2020_Oct_20_1545,headphone_calibration,2020.1.3,60.11100096586308,
8,0.3,0.12589254117941676,,,,,,,,,,,,,,,,,,,,,,,,,,,,,,23.692528650019085,None,1,0.11660220002522692,23.69257660000585,None,23.69257660000585,None,23.69257660000585,None,,,,,,,,,,,,,001,2020_Oct_20_1545,headphone_calibration,2020.1.3,60.11100096586308,
9,0.2,0.06309573444801934,,,,,,,,,,,,,,,,,,,,,,,,,,,,,,23.825837950018467,None,0,0.2071466000052169,23.82668730005389,None,23.82668730005389,None,23.82668730005389,None,,,,,,,,,,,,,001,2020_Oct_20_1545,headphone_calibration,2020.1.3,60.11100096586308,
10,0.2,0.10000000000000003,,,,,,,,,,,,,,,,,,,,,,,,,,,,,,24.05893005002872,None,0,0.1290656999917701,24.05886540003121,None,24.05886540003121,None,24.05886540003121,None,,,,,,,,,,,,,001,2020_Oct_20_1545,headphone_calibration,2020.1.3,60.11100096586308,
11,0.2,0.15848931924611143,,,,,,,,,,,,,,,,,,,,,,,,,,,,,,24.208882150036516,None,0,0.1302923999610357,24.208962000033353,None,24.208962000033353,None,24.208962000033353,None,,,,,,,,,,,,,001,2020_Oct_20_1545,headphone_calibration,2020.1.3,60.11100096586308,
12,0.2,0.2511886431509582,,,,,,,,,,,,,,,,,,,,,,,,,,,,,,24.358705550053855,None,0,0.12981549999676645,24.35865210002521,None,24.35865210002521,None,24.35865210002521,None,,,,,,,,,,,,,001,2020_Oct_20_1545,headphone_calibration,2020.1.3,60.11100096586308,
13,0.2,0.39810717055349754,,,,,,,,,,,,,,,,,,,,,,,,,,,,,,24.508512650005287,None,0,0.11043940001400188,24.50853760004975,None,24.50853760004975,None,24.50853760004975,None,,,,,,,,,,,,,001,2020_Oct_20_1545,headphone_calibration,2020.1.3,60.11100096586308,
14,0.2,0.6309573444801937,,,,,,,,,,,,,,,,,,,,,,,,,,,,,,24.64165375000448,None,1,0.4273382999817841,24.641642800008412,None,24.641642800008412,None,24.641642800008412,None,,,,,,,,,,,,,001,2020_Oct_20_1545,headphone_calibration,2020.1.3,60.11100096586308,
15,0.2,0.3981071705534975,,,,,,,,,,,,,,,,,,,,,,,,,,,,,,25.09111115001724,None,1,0.1306101999944076,25.091076100012287,None,25.091076100012287,None,25.091076100012287,None,,,,,,,,,,,,,001,2020_Oct_20_1545,headphone_calibration,2020.1.3,60.11100096586308,
16,0.1,0.2511886431509581,,,,,,,,,,,,,,,,,,,,,,,,,,,,,,25.241054350015474,None,0,0.5960434000007808,25.24184310005512,None,25.24184310005512,None,25.24184310005512,None,,,,,,,,,,,,,001,2020_Oct_20_1545,headphone_calibration,2020.1.3,60.11100096586308,
17,0.1,0.3162277660168381,,,,,,,,,,,,,,,,,,,,,,,,,,,,,,25.85706575002405,None,0,0.16477769997436553,25.85745340003632,None,25.85745340003632,None,25.85745340003632,None,,,,,,,,,,,,,001,2020_Oct_20_1545,headphone_calibration,2020.1.3,60.11100096586308,
18,0.1,0.3981071705534975,,,,,,,,,,,,,,,,,,,,,,,,,,,,,,26.040181650052546,None,0,0.42797970003448427,26.04029040003661,None,26.04029040003661,None,26.04029040003661,None,,,,,,,,,,,,,001,2020_Oct_20_1545,headphone_calibration,2020.1.3,60.11100096586308,
19,0.1,0.5011872336272726,,,,,,,,,,,,,,,,,,,,,,,,,,,,,,26.48977775001549,None,0,0.12429669999983162,26.489689800015185,None,26.489689800015185,None,26.489689800015185,None,,,,,,,,,,,,,001,2020_Oct_20_1545,headphone_calibration,2020.1.3,60.11100096586308,
20,0.1,0.6309573444801937,,,,,,,,,,,,,,,,,,,,,,,,,,,,,,26.63977475001593,None,0,0.1313347999821417,26.64117460005218,None,26.64117460005218,None,26.64117460005218,None,,,,,,,,,,,,,001,2020_Oct_20_1545,headphone_calibration,2020.1.3,60.11100096586308,
21,0.1,0.7943282347242822,,,,,,,,,,,,,,,,,,,,,,,,,,,,,,26.78962375005358,None,0,0.4794932000222616,26.790346699999645,None,26.790346699999645,None,26.790346699999645,None,,,,,,,,,,,,,001,2020_Oct_20_1545,headphone_calibration,2020.1.3,60.11100096586308,
22,0.1,1,,,,,,,,,,,,,,,,,,,,,,,,,,,,,,27.289040350035066,None,0,0.1471478000166826,27.288945500040427,None,27.288945500040427,None,27.288945500040427,None,,,,,,,,,,,,,001,2020_Oct_20_1545,headphone_calibration,2020.1.3,60.11100096586308,
23,0.1,1,,,,,,,,,,,,,,,,,,,,,,,,,,,,,,27.45519175005029,None,0,0.12369909998960793,27.455346500035375,None,27.455346500035375,None,27.455346500035375,None,,,,,,,,,,,,,001,2020_Oct_20_1545,headphone_calibration,2020.1.3,60.11100096586308,
24,0.1,1,,,,,,,,,,,,,,,,,,,,,,,,,,,,,,27.605490950023523,None,1,0.16775860002962872,27.605490300047677,None,27.605490300047677,None,27.605490300047677,None,,,,,,,,,,,,,001,2020_Oct_20_1545,headphone_calibration,2020.1.3,60.11100096586308,
25,0.1,0.7943282347242815,,,,,,,,,,,,,,,,,,,,,,,,,,,,,,27.8048683500092,None,1,0.12272390001453459,27.80516730004456,None,27.80516730004456,None,27.80516730004456,None,,,,,,,,,,,,,001,2020_Oct_20_1545,headphone_calibration,2020.1.3,60.11100096586308,
26,0.1,0.6309573444801932,,,,,,,,,,,,,,,,,,,,,,,,,,,,,,27.954877150041284,None,1,0.12430399999720976,27.955047700030264,None,27.955047700030264,None,27.955047700030264,None,,,,,,,,,,,,,001,2020_Oct_20_1545,headphone_calibration,2020.1.3,60.11100096586308,
27,0.1,0.5011872336272722,,,,,,,,,,,,,,,,,,,,,,,,,,,,,,28.1047197500302,None,1,0.11649310000939295,28.104948100051843,None,28.104948100051843,None,28.104948100051843,None,,,,,,,,,,,,,001,2020_Oct_20_1545,headphone_calibration,2020.1.3,60.11100096586308,
28,0.1,0.3981071705534972,,,,,,,,,,,,,,,,,,,,,,,,,,,,,,28.238013150024926,None,1,0.9831427999888547,28.23797060002107,None,28.23797060002107,None,28.23797060002107,None,,,,,,,,,,,,,001,2020_Oct_20_1545,headphone_calibration,2020.1.3,60.11100096586308,
29,0.1,0.3162277660168379,,,,,,,,,,,,,,,,,,,,,,,,,,,,,,29.237158150033792,None,1,0.13616080000065267,29.237277600041125,None,29.237277600041125,None,29.237277600041125,None,,,,,,,,,,,,,001,2020_Oct_20_1545,headphone_calibration,2020.1.3,60.11100096586308,
30,0.1,0.25118864315095796,,,,,,,,,,,,,,,,,,,,,,,,,,,,,,29.403706750046695,None,1,0.12013250001473352,29.40353990002768,None,29.40353990002768,None,29.40353990002768,None,,,,,,,,,,,,,001,2020_Oct_20_1545,headphone_calibration,2020.1.3,60.11100096586308,
31,0.05,0.19952623149688792,,,,,,,,,,,,,,,,,,,,,,,,,,,,,,29.553705550002633,None,0,0.19519590004347265,29.553570300049614,None,29.553570300049614,None,29.553570300049614,None,,,,,,,,,,,,,001,2020_Oct_20_1545,headphone_calibration,2020.1.3,60.11100096586308,
32,0.05,0.2238721138568339,,,,,,,,,,,,,,,,,,,,,,,,,,,,,,29.76985185002559,None,0,0.12569519999669865,29.76997520000441,None,29.76997520000441,None,29.76997520000441,None,,,,,,,,,,,,,001,2020_Oct_20_1545,headphone_calibration,2020.1.3,60.11100096586308,
33,0.05,0.2511886431509579,,,,,,,,,,,,,,,,,,,,,,,,,,,,,,29.919726250023814,None,0,0.13020480005070567,29.919742800004315,None,29.919742800004315,None,29.919742800004315,None,,,,,,,,,,,,,001,2020_Oct_20_1545,headphone_calibration,2020.1.3,60.11100096586308,
34,0.05,0.28183829312644526,,,,,,,,,,,,,,,,,,,,,,,,,,,,,,30.069545450009173,None,1,0.3738640999654308,30.069742400024552,None,30.069742400024552,None,30.069742400024552,None,,,,,,,,,,,,,001,2020_Oct_20_1545,headphone_calibration,2020.1.3,60.11100096586308,
35,0.05,0.2511886431509579,,,,,,,,,,,,,,,,,,,,,,,,,,,,,,30.469169850024628,None,1,0.1392799000022933,30.46924000000581,None,30.46924000000581,None,30.46924000000581,None,,,,,,,,,,,,,001,2020_Oct_20_1545,headphone_calibration,2020.1.3,60.11100096586308,
36,0.01,0.2238721138568339,,,,,,,,,,,,,,,,,,,,,,,,,,,,,,30.635760550008854,None,0,1.5074884000350721,30.635818200011272,None,30.635818200011272,None,30.635818200011272,None,,,,,,,,,,,,,001,2020_Oct_20_1545,headphone_calibration,2020.1.3,60.11100096586308,
,,,,,,,,,,,,,,,,,,,,,,,,,,,,,,,,,,,,,,,,,,32.168165200040676,None,32.168165200040676,None,32.168165200040676,None,e,1,9.128905199992005,32.168165200040676,None,,001,2020_Oct_20_1545,headphone_calibration,2020.1.3,60.11100096586308,
