trials.thisTrialN,trials.stepSize,trials.intensity,key_resp_2.keys,key_resp_2.rt,key_resp_2.started,key_resp_2.stopped,press_space.started,press_space.stopped,title_text.started,title_text.stopped,text_2.started,text_2.stopped,key_resp_3.keys,key_resp_3.corr,key_resp_3.rt,key_resp_3.started,key_resp_3.stopped,text_3.started,text_3.stopped,key_resp_4.keys,key_resp_4.corr,key_resp_4.rt,key_resp_4.started,key_resp_4.stopped,text_4.started,text_4.stopped,key_resp_5.keys,key_resp_5.corr,key_resp_5.rt,key_resp_5.started,key_resp_5.stopped,sound_1.started,sound_1.stopped,trials.response,key_resp.rt,key_resp.started,key_resp.stopped,question_text.started,question_text.stopped,level_text.started,level_text.stopped,participant,session,date,expName,psychopyVersion,frameRate,
,,,space,1.279199499999777,15.831464999999298,None,,,,,,,,,,,,,,,,,,,,,,,,,,,,,,,,,,,,,001,2020_Nov_02_1302,headphone_calibration,2020.2.4,59.94521007797712,
,,,,,,,15.831464999999298,None,15.831464999999298,None,17.136382699999558,None,space,0,0.4101093999997829,17.136382699999558,None,,,,,,,,,,,,,,,,,,,,,,,,,,001,2020_Nov_02_1302,headphone_calibration,2020.2.4,59.94521007797712,
,,,,,,,,,,,,,,,,,,17.569857799999227,None,space,1,0.2564922999999908,17.569857799999227,None,,,,,,,,,,,,,,,,,,,001,2020_Nov_02_1302,headphone_calibration,2020.2.4,59.94521007797712,
,,,,,,,,,,,,,,,,,,,,,,,,,17.85341679999965,None,space,1,0.3306914999993751,17.85341679999965,None,,,,,,,,,,,,001,2020_Nov_02_1302,headphone_calibration,2020.2.4,59.94521007797712,
0,0.3,0.1,,,,,,,,,,,,,,,,,,,,,,,,,,,,,,18.203571399999237,None,0,0.6927316999999675,18.203773199999887,None,18.203773199999887,None,18.203773199999887,None,,001,2020_Nov_02_1302,headphone_calibration,2020.2.4,59.94521007797712,
1,0.3,0.19952623149688797,,,,,,,,,,,,,,,,,,,,,,,,,,,,,,18.937735499999327,None,0,0.12813030000052095,18.93224089999967,None,18.93224089999967,None,18.93224089999967,None,,001,2020_Nov_02_1302,headphone_calibration,2020.2.4,59.94521007797712,
2,0.3,0.39810717055349726,,,,,,,,,,,,,,,,,,,,,,,,,,,,,,19.088115199999994,None,0,0.11674039999979868,19.088177799999357,None,19.088177799999357,None,19.088177799999357,None,,001,2020_Nov_02_1302,headphone_calibration,2020.2.4,59.94521007797712,
3,0.3,0.7943282347242815,,,,,,,,,,,,,,,,,,,,,,,,,,,,,,19.221464600000036,None,0,0.1301196999993408,19.222354599999562,None,19.222354599999562,None,19.222354599999562,None,,001,2020_Nov_02_1302,headphone_calibration,2020.2.4,59.94521007797712,
4,0.3,1,,,,,,,,,,,,,,,,,,,,,,,,,,,,,,19.371570399999474,None,1,2.358337099999517,19.371826199999305,None,19.371826199999305,None,19.371826199999305,None,,001,2020_Nov_02_1302,headphone_calibration,2020.2.4,59.94521007797712,
5,0.3,0.5011872336272724,,,,,,,,,,,,,,,,,,,,,,,,,,,,,,21.757297599999948,None,1,0.3796277999999802,21.757236599999487,None,21.757236599999487,None,21.757236599999487,None,,001,2020_Nov_02_1302,headphone_calibration,2020.2.4,59.94521007797712,
6,0.2,0.25118864315095807,,,,,,,,,,,,,,,,,,,,,,,,,,,,,,22.158165399999962,None,0,0.787068999999974,22.158798999999817,None,22.158798999999817,None,22.158798999999817,None,,001,2020_Nov_02_1302,headphone_calibration,2020.2.4,59.94521007797712,
7,0.2,0.39810717055349737,,,,,,,,,,,,,,,,,,,,,,,,,,,,,,22.97576299999928,None,0,0.22078049999981886,22.97654479999983,None,22.97654479999983,None,22.97654479999983,None,,001,2020_Nov_02_1302,headphone_calibration,2020.2.4,59.94521007797712,
8,0.2,0.6309573444801935,,,,,,,,,,,,,,,,,,,,,,,,,,,,,,23.22529729999933,None,0,2.850209499999437,23.225527599999623,None,23.225527599999623,None,23.225527599999623,None,,001,2020_Nov_02_1302,headphone_calibration,2020.2.4,59.94521007797712,
9,0.2,1,,,,,,,,,,,,,,,,,,,,,,,,,,,,,,26.09501849999997,None,1,0.8221463999998377,26.095454399999653,None,26.095454399999653,None,26.095454399999653,None,,001,2020_Nov_02_1302,headphone_calibration,2020.2.4,59.94521007797712,
10,0.1,0.6309573444801932,,,,,,,,,,,,,,,,,,,,,,,,,,,,,,26.94574679999987,None,0,0.4963752999992721,26.946064799999476,None,26.946064799999476,None,26.946064799999476,None,,001,2020_Nov_02_1302,headphone_calibration,2020.2.4,59.94521007797712,
11,0.1,0.7943282347242816,,,,,,,,,,,,,,,,,,,,,,,,,,,,,,27.46279659999964,None,0,1.003319399999782,27.4633359999998,None,27.4633359999998,None,27.4633359999998,None,,001,2020_Nov_02_1302,headphone_calibration,2020.2.4,59.94521007797712,
12,0.1,1,,,,,,,,,,,,,,,,,,,,,,,,,,,,,,28.49746219999979,None,1,0.3386577999999645,28.498445100000026,None,28.498445100000026,None,28.498445100000026,None,,001,2020_Nov_02_1302,headphone_calibration,2020.2.4,59.94521007797712,
13,0.1,0.7943282347242815,,,,,,,,,,,,,,,,,,,,,,,,,,,,,,28.86462079999983,None,1,0.2590997999996034,28.864399799999774,None,28.864399799999774,None,28.864399799999774,None,,001,2020_Nov_02_1302,headphone_calibration,2020.2.4,59.94521007797712,
14,0.05,0.6309573444801932,,,,,,,,,,,,,,,,,,,,,,,,,,,,,,29.147880799999985,None,0,0.2809090999999171,29.149539600000026,None,29.149539600000026,None,29.149539600000026,None,,001,2020_Nov_02_1302,headphone_calibration,2020.2.4,59.94521007797712,
15,0.05,0.7079457843841378,,,,,,,,,,,,,,,,,,,,,,,,,,,,,,29.449450899999466,None,0,0.3510238999997455,29.44836359999954,None,29.44836359999954,None,29.44836359999954,None,,001,2020_Nov_02_1302,headphone_calibration,2020.2.4,59.94521007797712,
16,0.05,0.7943282347242813,,,,,,,,,,,,,,,,,,,,,,,,,,,,,,29.81567299999988,None,0,0.5909536999997727,29.815544099999897,None,29.815544099999897,None,29.815544099999897,None,,001,2020_Nov_02_1302,headphone_calibration,2020.2.4,59.94521007797712,
17,0.05,0.8912509381337452,,,,,,,,,,,,,,,,,,,,,,,,,,,,,,30.43645219999944,None,1,0.25090799999998126,30.436539899999843,None,30.436539899999843,None,30.436539899999843,None,,001,2020_Nov_02_1302,headphone_calibration,2020.2.4,59.94521007797712,
18,0.01,0.7943282347242813,,,,,,,,,,,,,,,,,,,,,,,,,,,,,,30.71664729999957,None,0,2.618658100000175,30.716940799999975,None,30.716940799999975,None,30.716940799999975,None,,001,2020_Nov_02_1302,headphone_calibration,2020.2.4,59.94521007797712,
19,0.01,0.812830516164099,,,,,,,,,,,,,,,,,,,,,,,,,,,,,,33.35228759999954,None,0,1.7239377999994758,33.35317279999981,None,33.35317279999981,None,33.35317279999981,None,,001,2020_Nov_02_1302,headphone_calibration,2020.2.4,59.94521007797712,
20,0.01,0.8317637711026706,,,,,,,,,,,,,,,,,,,,,,,,,,,,,,35.10392319999919,None,0,1.5979870999999548,35.10415339999963,None,35.10415339999963,None,35.10415339999963,None,,001,2020_Nov_02_1302,headphone_calibration,2020.2.4,59.94521007797712,
21,0.01,0.8511380382023761,,,,,,,,,,,,,,,,,,,,,,,,,,,,,,36.722472999999624,None,0,1.4590542999994796,36.72236479999992,None,36.72236479999992,None,36.72236479999992,None,,001,2020_Nov_02_1302,headphone_calibration,2020.2.4,59.94521007797712,
22,0.01,0.8709635899560803,,,,,,,,,,,,,,,,,,,,,,,,,,,,,,38.20717939999922,None,0,1.0364648000004308,38.20727309999984,None,38.20727309999984,None,38.20727309999984,None,,001,2020_Nov_02_1302,headphone_calibration,2020.2.4,59.94521007797712,
23,0.01,0.8912509381337451,,,,,,,,,,,,,,,,,,,,,,,,,,,,,,39.27478049999972,None,0,0.7275062999997317,39.2749060999995,None,39.2749060999995,None,39.2749060999995,None,,001,2020_Nov_02_1302,headphone_calibration,2020.2.4,59.94521007797712,
24,0.01,0.9120108393559093,,,,,,,,,,,,,,,,,,,,,,,,,,,,,,40.02561099999984,None,1,0.46122939999986556,40.02579989999958,None,40.02579989999958,None,40.02579989999958,None,,001,2020_Nov_02_1302,headphone_calibration,2020.2.4,59.94521007797712,
