trials.thisTrialN,trials.stepSize,trials.intensity,key_resp_2.keys,key_resp_2.rt,key_resp_2.started,key_resp_2.stopped,text.started,text.stopped,text_2.started,text_2.stopped,key_resp_3.keys,key_resp_3.corr,key_resp_3.rt,key_resp_3.started,key_resp_3.stopped,text_3.started,text_3.stopped,key_resp_4.keys,key_resp_4.corr,key_resp_4.rt,key_resp_4.started,key_resp_4.stopped,text_4.started,text_4.stopped,key_resp_5.keys,key_resp_5.corr,key_resp_5.rt,key_resp_5.started,key_resp_5.stopped,sound_1.started,sound_1.stopped,trials.response,key_resp.rt,key_resp.started,key_resp.stopped,question_text.started,question_text.stopped,level_text.started,level_text.stopped,participant,session,date,expName,psychopyVersion,frameRate,
,,,space,0.6658562000375241,18.13130990002537,None,,,,,,,,,,,,,,,,,,,,,,,,,,,,,,,,,,,001,2020_Oct_20_1428,headphone_calibration,2020.1.3,60.059482910336776,
,,,,,,,18.13130990002537,None,18.821052000042982,None,space,0,0.5305482999538071,18.821052000042982,None,,,,,,,,,,,,,,,,,,,,,,,,,,001,2020_Oct_20_1428,headphone_calibration,2020.1.3,60.059482910336776,
,,,,,,,,,,,,,,,,19.37056490004761,None,space,1,0.35645850002765656,19.37056490004761,None,,,,,,,,,,,,,,,,,,,001,2020_Oct_20_1428,headphone_calibration,2020.1.3,60.059482910336776,
,,,,,,,,,,,,,,,,,,,,,,,19.75342120003188,None,space,1,0.313783899997361,19.75342120003188,None,,,,,,,,,,,,001,2020_Oct_20_1428,headphone_calibration,2020.1.3,60.059482910336776,
0,0.3,0.1,,,,,,,,,,,,,,,,,,,,,,,,,,,,20.086381990014342,None,0,1.0060737000312656,20.08884500002023,None,20.08884500002023,None,20.08884500002023,None,,001,2020_Oct_20_1428,headphone_calibration,2020.1.3,60.059482910336776,
1,0.3,0.19952623149688797,,,,,,,,,,,,,,,,,,,,,,,,,,,,21.134974480001254,None,1,0.771201400028076,21.128279700002167,None,21.128279700002167,None,21.128279700002167,None,,001,2020_Oct_20_1428,headphone_calibration,2020.1.3,60.059482910336776,
2,0.3,0.1,,,,,,,,,,,,,,,,,,,,,,,,,,,,21.9178213900479,None,1,0.2698911000043154,21.917643500026315,None,21.917643500026315,None,21.917643500026315,None,,001,2020_Oct_20_1428,headphone_calibration,2020.1.3,60.059482910336776,
3,0.2,0.050118723362727234,,,,,,,,,,,,,,,,,,,,,,,,,,,,22.217399590025888,None,0,0.19886419997783378,22.217572100053076,None,22.217572100053076,None,22.217572100053076,None,,001,2020_Oct_20_1428,headphone_calibration,2020.1.3,60.059482910336776,
4,0.2,0.07943282347242817,,,,,,,,,,,,,,,,,,,,,,,,,,,,22.434058090049074,None,0,0.13889820000622422,22.433970700018108,None,22.433970700018108,None,22.433970700018108,None,,001,2020_Oct_20_1428,headphone_calibration,2020.1.3,60.059482910336776,
5,0.2,0.12589254117941676,,,,,,,,,,,,,,,,,,,,,,,,,,,,22.600478890020167,None,0,0.12341589998686686,22.600620900047943,None,22.600620900047943,None,22.600620900047943,None,,001,2020_Oct_20_1428,headphone_calibration,2020.1.3,60.059482910336776,
6,0.2,0.19952623149688803,,,,,,,,,,,,,,,,,,,,,,,,,,,,22.750284390017622,None,0,0.13452319998759776,22.750337400007993,None,22.750337400007993,None,22.750337400007993,None,,001,2020_Oct_20_1428,headphone_calibration,2020.1.3,60.059482910336776,
7,0.2,0.31622776601683805,,,,,,,,,,,,,,,,,,,,,,,,,,,,22.900118590000783,None,0,0.14137740002479404,22.89999570004875,None,22.89999570004875,None,22.89999570004875,None,,001,2020_Oct_20_1428,headphone_calibration,2020.1.3,60.059482910336776,
8,0.2,0.5011872336272725,,,,,,,,,,,,,,,,,,,,,,,,,,,,23.066659790015546,None,0,0.14018689998192713,23.06744080001954,None,23.06744080001954,None,23.06744080001954,None,,001,2020_Oct_20_1428,headphone_calibration,2020.1.3,60.059482910336776,
9,0.2,0.7943282347242818,,,,,,,,,,,,,,,,,,,,,,,,,,,,23.2332211900095,None,0,0.161083500017412,23.23325740004657,None,23.23325740004657,None,23.23325740004657,None,,001,2020_Oct_20_1428,headphone_calibration,2020.1.3,60.059482910336776,
10,0.2,1,,,,,,,,,,,,,,,,,,,,,,,,,,,,23.416408389998832,None,0,0.35428479994880036,23.416343200020492,None,23.416343200020492,None,23.416343200020492,None,,001,2020_Oct_20_1428,headphone_calibration,2020.1.3,60.059482910336776,
11,0.2,1,,,,,,,,,,,,,,,,,,,,,,,,,,,,23.79895379000227,None,1,0.42307489999802783,23.799180300033186,None,23.799180300033186,None,23.799180300033186,None,,001,2020_Oct_20_1428,headphone_calibration,2020.1.3,60.059482910336776,
12,0.2,0.6309573444801932,,,,,,,,,,,,,,,,,,,,,,,,,,,,24.24874689001008,None,1,0.6810760999796912,24.248888000031002,None,24.248888000031002,None,24.248888000031002,None,,001,2020_Oct_20_1428,headphone_calibration,2020.1.3,60.059482910336776,
13,0.2,0.3981071705534972,,,,,,,,,,,,,,,,,,,,,,,,,,,,24.947996690013678,None,1,0.666258100012783,24.94814980000956,None,24.94814980000956,None,24.94814980000956,None,,001,2020_Oct_20_1428,headphone_calibration,2020.1.3,60.059482910336776,
14,0.2,0.25118864315095796,,,,,,,,,,,,,,,,,,,,,,,,,,,,25.630862389999674,None,1,0.14531569997780025,25.63116450002417,None,25.63116450002417,None,25.63116450002417,None,,001,2020_Oct_20_1428,headphone_calibration,2020.1.3,60.059482910336776,
15,0.2,0.15848931924611132,,,,,,,,,,,,,,,,,,,,,,,,,,,,25.79738909002044,None,1,0.275848799967207,25.79726020002272,None,25.79726020002272,None,25.79726020002272,None,,001,2020_Oct_20_1428,headphone_calibration,2020.1.3,60.059482910336776,
16,0.1,0.09999999999999998,,,,,,,,,,,,,,,,,,,,,,,,,,,,26.096851190045708,None,0,0.5502603999921121,26.097075400000904,None,26.097075400000904,None,26.097075400000904,None,,001,2020_Oct_20_1428,headphone_calibration,2020.1.3,60.059482910336776,
17,0.1,0.1258925411794167,,,,,,,,,,,,,,,,,,,,,,,,,,,,26.663184190011815,None,0,0.4233323999796994,26.66305570001714,None,26.66305570001714,None,26.66305570001714,None,,001,2020_Oct_20_1428,headphone_calibration,2020.1.3,60.059482910336776,
18,0.1,0.15848931924611134,,,,,,,,,,,,,,,,,,,,,,,,,,,,27.112684590002754,None,1,0.3881696999887936,27.112572800018825,None,27.112572800018825,None,27.112572800018825,None,,001,2020_Oct_20_1428,headphone_calibration,2020.1.3,60.059482910336776,
19,0.1,0.1258925411794167,,,,,,,,,,,,,,,,,,,,,,,,,,,,27.52894889000454,None,1,0.17982220003614202,27.529008400044404,None,27.529008400044404,None,27.529008400044404,None,,001,2020_Oct_20_1428,headphone_calibration,2020.1.3,60.059482910336776,
20,0.1,0.09999999999999998,,,,,,,,,,,,,,,,,,,,,,,,,,,,27.728825390007113,None,1,0.18070279998937622,27.728905500029214,None,27.728905500029214,None,27.728905500029214,None,,001,2020_Oct_20_1428,headphone_calibration,2020.1.3,60.059482910336776,
