trials.thisRepN,trials.thisTrialN,trials.thisN,trials.thisIndex,text.started,text.stopped,key_resp_2.keys,key_resp_2.rt,key_resp_2.started,key_resp_2.stopped,sound_1.started,sound_1.stopped,key_resp.keys,key_resp.started,key_resp.stopped,key_resp.rt,participant,input,session,date,expName,psychopyVersion,frameRate,
,,,,20.56773270003032,20.56773270003032,space,1.2897859999793582,20.56773270003032,None,,,,,,,,0.2,001,2020_Oct_19_1316,temp,2020.1.3,None,
0,0,0,0,,,,,,,21.896308733332745,None,None,21.89025529997889,None,,,0.2,001,2020_Oct_19_1316,temp,2020.1.3,None,
1,0,1,0,,,,,,,26.911325733359746,None,None,26.899843099992722,None,,,0.2,001,2020_Oct_19_1316,temp,2020.1.3,None,
2,0,2,0,,,,,,,31.909509866676913,None,None,31.909991100023035,None,,,0.2,001,2020_Oct_19_1316,temp,2020.1.3,None,
3,0,3,0,,,,,,,36.8850144666542,None,None,36.88607130001765,None,,,0.2,001,2020_Oct_19_1316,temp,2020.1.3,None,
4,0,4,0,,,,,,,41.900442666669065,None,None,41.902703500003554,None,,,0.2,001,2020_Oct_19_1316,temp,2020.1.3,None,
5,0,5,0,,,,,,,46.888305066681156,None,None,46.88929570000619,None,,,0.2,001,2020_Oct_19_1316,temp,2020.1.3,None,
6,0,6,0,,,,,,,51.890357666652804,None,None,51.89225490001263,None,,,0.2,001,2020_Oct_19_1316,temp,2020.1.3,None,
7,0,7,0,,,,,,,56.89246016665517,None,None,56.893732900032774,None,,,0.2,001,2020_Oct_19_1316,temp,2020.1.3,None,
8,0,8,0,,,,,,,61.89429456665336,None,None,61.895706899988,None,,,0.2,001,2020_Oct_19_1316,temp,2020.1.3,None,
9,0,9,0,,,,,,,66.90911036666172,None,None,66.90988049999578,None,,,0.2,001,2020_Oct_19_1316,temp,2020.1.3,None,
10,0,10,0,,,,,,,71.88414216664775,None,None,71.88672060001409,None,,,0.2,001,2020_Oct_19_1316,temp,2020.1.3,None,
11,0,11,0,,,,,,,76.89970316668429,None,None,76.90064680000069,None,,,0.2,001,2020_Oct_19_1316,temp,2020.1.3,None,
12,0,12,0,,,,,,,81.88818136667057,None,None,81.8884173000115,None,,,0.2,001,2020_Oct_19_1316,temp,2020.1.3,None,
13,0,13,0,,,,,,,86.88988816668667,None,None,86.89060729998164,None,,,0.2,001,2020_Oct_19_1316,temp,2020.1.3,None,
14,0,14,0,,,,,,,91.90810073336664,None,None,91.89631819998613,None,,,0.2,001,2020_Oct_19_1316,temp,2020.1.3,None,
15,0,15,0,,,,,,,96.89316206670289,None,None,96.89470439997967,None,,,0.2,001,2020_Oct_19_1316,temp,2020.1.3,None,
16,0,16,0,,,,,,,101.90886936668927,None,None,101.9096881999867,None,,,0.2,001,2020_Oct_19_1316,temp,2020.1.3,None,
17,0,17,0,,,,,,,106.89958786667945,None,None,106.90401519997977,None,,,0.2,001,2020_Oct_19_1316,temp,2020.1.3,None,
18,0,18,0,,,,,,,111.89968546666593,None,None,111.9011244000285,None,,,0.2,001,2020_Oct_19_1316,temp,2020.1.3,None,
19,0,19,0,,,,,,,116.88765856664783,None,None,116.88950659998227,None,,,0.2,001,2020_Oct_19_1316,temp,2020.1.3,None,
20,0,20,0,,,,,,,121.88900016667709,None,None,121.89081940002507,None,,,0.2,001,2020_Oct_19_1316,temp,2020.1.3,None,
21,0,21,0,,,,,,,126.89266486670046,None,u,126.89470519998576,None,4.072251899982803,,0.2,001,2020_Oct_19_1316,temp,2020.1.3,None,
22,0,22,0,,,,,,,131.0024612333587,None,u,130.9938946000184,None,0.25587150000501424,,0.2,001,2020_Oct_19_1316,temp,2020.1.3,None,
23,0,23,0,,,,,,,131.2963368333372,None,u,131.29076689999783,None,0.24893080000765622,,0.2,001,2020_Oct_19_1316,temp,2020.1.3,None,
24,0,24,0,,,,,,,131.57628873334812,None,u,131.5677457000129,None,0.20525989995803684,,0.2,001,2020_Oct_19_1316,temp,2020.1.3,None,
25,0,25,0,,,,,,,131.82949373336356,None,u,131.8221214999794,None,0.18813510000472888,,0.2,001,2020_Oct_19_1316,temp,2020.1.3,None,
26,0,26,0,,,,,,,132.04252753331872,None,u,132.0360354000004,None,0.1463825999526307,,0.2,001,2020_Oct_19_1316,temp,2020.1.3,None,
27,0,27,0,,,,,,,132.23003783333894,None,u,132.22204419999616,None,0.1231821000110358,,0.2,001,2020_Oct_19_1316,temp,2020.1.3,None,
28,0,28,0,,,,,,,132.389891733365,None,u,132.38165870000375,None,0.12812429998302832,,0.2,001,2020_Oct_19_1316,temp,2020.1.3,None,
29,0,29,0,,,,,,,132.56332333334336,None,u,132.55479339999147,None,0.11090660002082586,,0.2,001,2020_Oct_19_1316,temp,2020.1.3,None,
30,0,30,0,,,,,,,132.71047863335895,None,u,132.7036672999966,None,0.11629499995615333,,0.2,001,2020_Oct_19_1316,temp,2020.1.3,None,
31,0,31,0,,,,,,,132.8562938333567,None,u,132.85090520000085,None,0.11755759996594861,,0.2,001,2020_Oct_19_1316,temp,2020.1.3,None,
32,0,32,0,,,,,,,133.00322843332157,None,u,132.99783489998663,None,0.12332400004379451,,0.2,001,2020_Oct_19_1316,temp,2020.1.3,None,
33,0,33,0,,,,,,,133.17759453331433,None,u,133.17471870000008,None,0.10088370001176372,,0.2,001,2020_Oct_19_1316,temp,2020.1.3,None,
34,0,34,0,,,,,,,133.31047513336722,None,u,133.30586020002374,None,0.1162627000012435,,0.2,001,2020_Oct_19_1316,temp,2020.1.3,None,
35,0,35,0,,,,,,,133.45688393334473,None,u,133.45239689998562,None,0.11702440003864467,,0.2,001,2020_Oct_19_1316,temp,2020.1.3,None,
36,0,36,0,,,,,,,133.6044395333234,None,u,133.5982962999842,None,0.16271830000914633,,0.2,001,2020_Oct_19_1316,temp,2020.1.3,None,
37,0,37,0,,,,,,,133.80374863331286,None,u,133.79864350002026,None,0.09523730003274977,,0.2,001,2020_Oct_19_1316,temp,2020.1.3,None,
38,0,38,0,,,,,,,133.93730213336727,None,u,133.94140300003346,None,0.11187149997567758,,0.2,001,2020_Oct_19_1316,temp,2020.1.3,None,
39,0,39,0,,,,,,,134.12847700000276,None,u,134.1322986999876,None,0.08122510003158823,,0.2,001,2020_Oct_19_1316,temp,2020.1.3,None,
40,0,40,0,,,,,,,134.29096126668546,None,u,134.28789289999986,None,0.08548700000392273,,0.2,001,2020_Oct_19_1316,temp,2020.1.3,None,
41,0,41,0,,,,,,,134.43404800003628,None,u,134.42694839998148,None,0.10710600001038983,,0.2,001,2020_Oct_19_1316,temp,2020.1.3,None,
42,0,42,0,,,,,,,134.57701043331377,None,u,134.5789149000193,None,0.11931019998155534,,0.2,001,2020_Oct_19_1316,temp,2020.1.3,None,
43,0,43,0,,,,,,,134.73717253335832,None,u,134.73660559998825,None,0.13173729996196926,,0.2,001,2020_Oct_19_1316,temp,2020.1.3,None,
44,0,44,0,,,,,,,134.91070563335285,None,u,134.90877919999184,None,0.12149709998629987,,0.2,001,2020_Oct_19_1316,temp,2020.1.3,None,
45,0,45,0,,,,,,,135.07104973332804,None,u,135.06817240000237,None,0.12277009995887056,,0.2,001,2020_Oct_19_1316,temp,2020.1.3,None,
46,0,46,0,,,,,,,135.24455803336656,None,u,135.24251020001248,None,0.10349410003982484,,0.2,001,2020_Oct_19_1316,temp,2020.1.3,None,
47,0,47,0,,,,,,,135.39056533331365,None,u,135.39044069999363,None,0.11650820000795648,,0.2,001,2020_Oct_19_1316,temp,2020.1.3,None,
48,0,48,0,,,,,,,135.55075723335227,None,u,135.5461669000215,None,0.12242369999876246,,0.2,001,2020_Oct_19_1316,temp,2020.1.3,None,
49,0,49,0,,,,,,,135.7240719333136,None,u,135.71997340000235,None,0.11076129996217787,,0.2,001,2020_Oct_19_1316,temp,2020.1.3,None,
50,0,50,0,,,,,,,135.88883670001525,None,u,135.88925240002573,None,0.10390469996491447,,0.2,001,2020_Oct_19_1316,temp,2020.1.3,None,
51,0,51,0,,,,,,,136.0306621333662,None,u,136.0341855000006,None,0.12419050000607967,,0.2,001,2020_Oct_19_1316,temp,2020.1.3,None,
52,0,52,0,,,,,,,136.20780919999817,None,u,136.20094870001776,None,0.11795450001955032,,0.2,001,2020_Oct_19_1316,temp,2020.1.3,None,
53,0,53,0,,,,,,,136.3642506333495,None,u,136.36287750001065,None,0.11669440002879128,,0.2,001,2020_Oct_19_1316,temp,2020.1.3,None,
54,0,54,0,,,,,,,136.524537033351,None,u,136.52221000002464,None,0.11917910003103316,,0.2,001,2020_Oct_19_1316,temp,2020.1.3,None,
55,0,55,0,,,,,,,136.6849657333301,None,u,136.6800672999816,None,0.12359239999204874,,0.2,001,2020_Oct_19_1316,temp,2020.1.3,None,
56,0,56,0,,,,,,,136.85779813334426,None,u,136.85188450000715,None,0.11352769995573908,,0.2,001,2020_Oct_19_1316,temp,2020.1.3,None,
57,0,57,0,,,,,,,137.0044498333669,None,u,136.99856500001624,None,0.1320729000144638,,0.2,001,2020_Oct_19_1316,temp,2020.1.3,None,
58,0,58,0,,,,,,,137.1645033333412,None,u,137.15940479998244,None,0.13820250000571832,,0.2,001,2020_Oct_19_1316,temp,2020.1.3,None,
59,0,59,0,,,,,,,137.33788213332497,None,u,137.33025990001624,None,0.1257138000219129,,0.2,001,2020_Oct_19_1316,temp,2020.1.3,None,
60,0,60,0,,,,,,,137.4978874333397,None,u,137.4922431000159,None,0.11309770005755126,,0.2,001,2020_Oct_19_1316,temp,2020.1.3,None,
61,0,61,0,,,,,,,137.67571709998884,None,u,137.6749104000046,None,0.09704789996612817,,0.2,001,2020_Oct_19_1316,temp,2020.1.3,None,
62,0,62,0,,,,,,,137.8056905333147,None,u,137.80541309999535,None,0.10227019997546449,,0.2,001,2020_Oct_19_1316,temp,2020.1.3,None,
63,0,63,0,,,,,,,137.94016803336177,None,u,137.93905709998216,None,0.13046670000767335,,0.2,001,2020_Oct_19_1316,temp,2020.1.3,None,
64,0,64,0,,,,,,,138.11184153334085,None,u,138.10772750002798,None,0.12292930000694469,,0.2,001,2020_Oct_19_1316,temp,2020.1.3,None,
65,0,65,0,,,,,,,138.27174003335728,None,u,138.2676089000306,None,0.11804809997556731,,0.2,001,2020_Oct_19_1316,temp,2020.1.3,None,
66,0,66,0,,,,,,,138.4183555333371,None,u,138.41335679998156,None,0.1351067999494262,,0.2,001,2020_Oct_19_1316,temp,2020.1.3,None,
67,0,67,0,,,,,,,138.62363470003476,None,u,138.61931410001125,None,0.08499949995893985,,0.2,001,2020_Oct_19_1316,temp,2020.1.3,None,
68,0,68,0,,,,,,,138.7389034333251,None,u,138.73681109998142,None,0.132731799967587,,0.2,001,2020_Oct_19_1316,temp,2020.1.3,None,
69,0,69,0,,,,,,,138.91222073336445,None,u,138.91330670000752,None,0.11384710000129417,,0.2,001,2020_Oct_19_1316,temp,2020.1.3,None,
70,0,70,0,,,,,,,139.07261143334523,None,u,139.06735660001868,None,0.1583247000235133,,0.2,001,2020_Oct_19_1316,temp,2020.1.3,None,
71,0,71,0,,,,,,,139.2723107333373,None,u,139.26450719998684,None,0.12572259997250512,,0.2,001,2020_Oct_19_1316,temp,2020.1.3,None,
72,0,72,0,,,,,,,139.43181713333666,None,u,139.4283292000182,None,0.12777530000312254,,0.2,001,2020_Oct_19_1316,temp,2020.1.3,None,
73,0,73,0,,,,,,,139.60525663331697,None,u,139.60659899999155,None,0.11580919998232275,,0.2,001,2020_Oct_19_1316,temp,2020.1.3,None,
74,0,74,0,,,,,,,139.7839088000008,None,u,139.78102689998923,None,0.09557679999852553,,0.2,001,2020_Oct_19_1316,temp,2020.1.3,None,
75,0,75,0,,,,,,,139.9129556333142,None,u,139.91452160000335,None,0.12421639997046441,,0.2,001,2020_Oct_19_1316,temp,2020.1.3,None,
76,0,76,0,,,,,,,140.0723297333539,None,u,140.0698771000025,None,0.12875840003835037,,0.2,001,2020_Oct_19_1316,temp,2020.1.3,None,
77,0,77,0,,,,,,,140.23254573334322,None,u,140.22861220000777,None,0.22333289997186512,,0.2,001,2020_Oct_19_1316,temp,2020.1.3,None,
78,0,78,0,,,,,,,140.48564493336795,None,u,140.48036909999792,None,0.13819690002128482,,0.2,001,2020_Oct_19_1316,temp,2020.1.3,None,
79,0,79,0,,,,,,,140.66129533336112,None,u,140.65430890000425,None,0.4055633000098169,,0.2,001,2020_Oct_19_1316,temp,2020.1.3,None,
80,0,80,0,,,,,,,141.10084463336585,None,u,141.09265489998506,None,0.6562350000021979,,0.2,001,2020_Oct_19_1316,temp,2020.1.3,None,
81,0,81,0,,,,,,,141.79346783331908,None,u,141.78352719999384,None,0.783762100036256,,0.2,001,2020_Oct_19_1316,temp,2020.1.3,None,
82,0,82,0,,,,,,,142.6199245333633,None,u,142.61143510002876,None,0.14987689995905384,,0.2,001,2020_Oct_19_1316,temp,2020.1.3,None,
83,0,83,0,,,,,,,142.7932683333134,None,u,142.7839030000032,None,0.15032449999125674,,0.2,001,2020_Oct_19_1316,temp,2020.1.3,None,
84,0,84,0,,,,,,,142.96730763332067,None,u,142.9587434999994,None,0.3745702999876812,,0.2,001,2020_Oct_19_1316,temp,2020.1.3,None,
85,0,85,0,,,,,,,143.36667563336283,None,u,143.35800380003639,None,0.47288810001919046,,0.2,001,2020_Oct_19_1316,temp,2020.1.3,None,
86,0,86,0,,,,,,,143.87386343332088,None,u,143.86239610001212,None,0.5106296999729238,,0.2,001,2020_Oct_19_1316,temp,2020.1.3,None,
87,0,87,0,,,,,,,144.40789193334837,None,u,144.39779190003173,None,0.868102100037504,,0.2,001,2020_Oct_19_1316,temp,2020.1.3,None,
88,0,88,0,,,,,,,145.30164523336185,None,u,145.29361699998844,None,0.768537700001616,,0.2,001,2020_Oct_19_1316,temp,2020.1.3,None,
89,0,89,0,,,,,,,146.11503063335164,None,u,146.10732000001008,None,0.39538589998846874,,0.2,001,2020_Oct_19_1316,temp,2020.1.3,None,
90,0,90,0,,,,,,,146.5413426333185,None,u,146.53166149999015,None,0.928572200005874,,0.2,001,2020_Oct_19_1316,temp,2020.1.3,None,
91,0,91,0,,,,,,,147.51508143335428,None,u,147.50937640003394,None,0.39198239997494966,,0.2,001,2020_Oct_19_1316,temp,2020.1.3,None,
92,0,92,0,,,,,,,147.94161203335585,None,None,147.93299320002552,152.93717490002746,,,0.2,001,2020_Oct_19_1316,temp,2020.1.3,None,
93,0,93,0,,,,,,,152.97050823336082,None,u,152.9646046999842,None,0.018419800035189837,,0.2,001,2020_Oct_19_1316,temp,2020.1.3,None,
94,0,94,0,,,,,,,153.02387823334044,None,u,153.0248636000324,None,0.6009243999724276,,0.2,001,2020_Oct_19_1316,temp,2020.1.3,None,
95,0,95,0,,,,,,,153.66392813332692,None,u,153.65452129999176,None,0.9955211000051349,,0.2,001,2020_Oct_19_1316,temp,2020.1.3,None,
96,0,96,0,,,,,,,154.69144073333206,None,u,154.68109120003646,None,0.6090098000131547,,0.2,001,2020_Oct_19_1316,temp,2020.1.3,None,
97,0,97,0,,,,,,,155.3313347333538,None,u,155.32004279998364,None,0.47391960001550615,,0.2,001,2020_Oct_19_1316,temp,2020.1.3,None,
98,0,98,0,,,,,,,155.8380924333547,None,u,155.82746250001946,None,0.10944410000229254,,0.2,001,2020_Oct_19_1316,temp,2020.1.3,None,
99,0,99,0,,,,,,,155.9720161333176,None,u,155.9623643999803,None,0.13611139997374266,,0.2,001,2020_Oct_19_1316,temp,2020.1.3,None,
100,0,100,0,,,,,,,156.13146413333794,None,u,156.12097350001568,None,0.13199349999194965,,0.2,001,2020_Oct_19_1316,temp,2020.1.3,None,
101,0,101,0,,,,,,,156.30500353332224,None,u,156.294263400021,None,0.09696059999987483,,0.2,001,2020_Oct_19_1316,temp,2020.1.3,None,
102,0,102,0,,,,,,,156.438510033368,None,u,156.42835760000162,None,0.10860279999906197,,0.2,001,2020_Oct_19_1316,temp,2020.1.3,None,
103,0,103,0,,,,,,,156.5720881333187,None,None,156.56135249999352,None,,,0.2,001,2020_Oct_19_1316,temp,2020.1.3,None,
104,0,104,0,,,,,,,161.5838601666658,None,None,161.58494979998795,161.58494979998795,,,0.2,001,2020_Oct_19_1316,temp,2020.1.3,None,
105,0,105,0,,,,,,,166.601991433367,166.59247770003276,None,166.59247770003276,166.59247770003276,,,0.2,001,2020_Oct_19_1316,temp,2020.1.3,None,
106,0,106,0,,,,,,,171.6005190666804,None,None,171.60450560000027,171.60450560000027,,,0.2,001,2020_Oct_19_1316,temp,2020.1.3,None,
