trials.thisRepN,trials.thisTrialN,trials.thisN,trials.thisIndex,sound_1.started,sound_1.stopped,key_resp.keys,key_resp.rt,key_resp.started,key_resp.stopped,participant,session,date,expName,psychopyVersion,frameRate,
0,0,0,0,13.747605899998598,None,u,2.3119445999982418,13.769067900000664,None,,001,2020_Oct_16_1630,temp,2020.1.3,None,
1,0,1,0,16.125120633333182,None,None,,16.116510399999243,21.12043360000098,,001,2020_Oct_16_1630,temp,2020.1.3,None,
2,0,2,0,21.137100266667645,None,u,1.0615682999996352,21.138985199999297,None,,001,2020_Oct_16_1630,temp,2020.1.3,None,
3,0,3,0,22.23425263333459,None,u,2.039846800002124,22.225455499999953,None,,001,2020_Oct_16_1630,temp,2020.1.3,None,
4,0,4,0,24.30165483333306,None,u,1.2556344000004174,24.291611299999204,None,,001,2020_Oct_16_1630,temp,2020.1.3,None,
5,0,5,0,25.582141433333646,None,u,1.610550900000817,25.57332409999799,None,,001,2020_Oct_16_1630,temp,2020.1.3,None,
6,0,6,0,27.2356052333312,None,u,1.2281159999984084,27.227978599999915,None,,001,2020_Oct_16_1630,temp,2020.1.3,None,
7,0,7,0,28.502969033332676,None,u,1.4493097000013222,28.493040299999848,None,,001,2020_Oct_16_1630,temp,2020.1.3,None,
8,0,8,0,29.983347933332453,None,u,0.7517287999980908,29.973203800000192,None,,001,2020_Oct_16_1630,temp,2020.1.3,None,
9,0,9,0,30.756931433334586,None,u,0.7303279999978258,30.74590779999926,None,,001,2020_Oct_16_1630,temp,2020.1.3,None,
10,0,10,0,31.53040223333349,None,None,,31.521181899999647,None,,001,2020_Oct_16_1630,temp,2020.1.3,None,
11,0,11,0,36.542391566665415,None,d,4.162309399998776,36.54481719999967,36.54481719999967,,001,2020_Oct_16_1630,temp,2020.1.3,None,
12,0,12,0,40.74742033333362,None,d,0.17309550000209128,40.736351399998966,None,,001,2020_Oct_16_1630,temp,2020.1.3,None,
13,0,13,0,40.94764033333243,None,d,0.1416084000011324,40.936605800001416,None,,001,2020_Oct_16_1630,temp,2020.1.3,None,
14,0,14,0,41.12139493333282,None,d,0.12400429999979679,41.11100140000053,None,,001,2020_Oct_16_1630,temp,2020.1.3,None,
15,0,15,0,41.26750883333128,None,d,0.11905920000208425,41.25705789999847,None,,001,2020_Oct_16_1630,temp,2020.1.3,None,
16,0,16,0,41.41421073333234,None,d,0.16073430000324151,41.403931799999555,None,,001,2020_Oct_16_1630,temp,2020.1.3,None,
17,0,17,0,41.601528433333925,None,d,0.5169980000027863,41.59215250000125,None,,001,2020_Oct_16_1630,temp,2020.1.3,None,
18,0,18,0,42.14817233333136,None,d,0.13145579999763868,42.138950399999885,None,,001,2020_Oct_16_1630,temp,2020.1.3,None,
19,0,19,0,42.32223143333297,None,d,0.09853049999946961,42.31184109999958,None,,001,2020_Oct_16_1630,temp,2020.1.3,None,
20,0,20,0,42.454611833331484,None,d,0.10444740000093589,42.44406330000129,None,,001,2020_Oct_16_1630,temp,2020.1.3,None,
21,0,21,0,42.58807193333317,None,d,3.121938100000989,42.57635999999911,None,,001,2020_Oct_16_1630,temp,2020.1.3,None,
22,0,22,0,45.71950146666519,None,u,4.630073299998912,45.725076899998385,None,,001,2020_Oct_16_1630,temp,2020.1.3,None,
23,0,23,0,50.39081133333141,None,u,0.12586080000255606,50.38112809999802,None,,001,2020_Oct_16_1630,temp,2020.1.3,None,
24,0,24,0,50.56460793333147,None,u,0.08356450000064797,50.553217399999994,None,,001,2020_Oct_16_1630,temp,2020.1.3,None,
25,0,25,0,50.67105053333265,None,u,0.12474339999971562,50.660232400001405,None,,001,2020_Oct_16_1630,temp,2020.1.3,None,
26,0,26,0,50.832016333334224,None,u,0.10431729999982053,50.82238950000101,None,,001,2020_Oct_16_1630,temp,2020.1.3,None,
27,0,27,0,50.96553473333236,None,u,0.11547840000275755,50.95598229999814,None,,001,2020_Oct_16_1630,temp,2020.1.3,None,
28,0,28,0,51.11188773333245,None,u,0.11014389999763807,51.10109480000028,None,,001,2020_Oct_16_1630,temp,2020.1.3,None,
29,0,29,0,51.24599913333125,None,u,0.12165180000010878,51.23655470000085,None,,001,2020_Oct_16_1630,temp,2020.1.3,None,
30,0,30,0,51.391385033334274,None,u,0.11660670000128448,51.38125619999846,None,,001,2020_Oct_16_1630,temp,2020.1.3,None,
31,0,31,0,51.538040333333385,None,u,0.11958690000028582,51.52768709999873,None,,001,2020_Oct_16_1630,temp,2020.1.3,None,
32,0,32,0,51.6847107333347,None,u,0.09502470000006724,51.673553900000115,None,,001,2020_Oct_16_1630,temp,2020.1.3,None,
33,0,33,0,51.80449573333365,None,u,0.10490240000217455,51.79396509999788,None,,001,2020_Oct_16_1630,temp,2020.1.3,None,
34,0,34,0,51.93800673333365,None,u,0.12567869999838877,51.92681629999788,None,,001,2020_Oct_16_1630,temp,2020.1.3,None,
35,0,35,0,52.085883133332146,None,u,0.11325959999885526,52.08039980000103,None,,001,2020_Oct_16_1630,temp,2020.1.3,None,
36,0,36,0,52.24533053333337,None,u,0.0990775999998732,52.239084799999546,None,,001,2020_Oct_16_1630,temp,2020.1.3,None,
37,0,37,0,52.37826873333373,None,u,0.12339190000056988,52.36779100000058,None,,001,2020_Oct_16_1630,temp,2020.1.3,None,
38,0,38,0,52.52507973333243,None,u,0.12339480000082403,52.514890899998136,None,,001,2020_Oct_16_1630,temp,2020.1.3,None,
39,0,39,0,52.67234553333449,None,u,0.11531880000256933,52.66279020000002,None,,001,2020_Oct_16_1630,temp,2020.1.3,None,
40,0,40,0,52.81940063333289,None,u,0.11203350000141654,52.80857979999928,None,,001,2020_Oct_16_1630,temp,2020.1.3,None,
41,0,41,0,52.952470333334105,None,u,0.12463800000114134,52.94205769999826,None,,001,2020_Oct_16_1630,temp,2020.1.3,None,
42,0,42,0,53.11289063333291,None,u,0.11471940000046743,53.10361289999855,None,,001,2020_Oct_16_1630,temp,2020.1.3,None,
43,0,43,0,53.25852743333283,None,u,0.11222839999754797,53.248807100000704,None,,001,2020_Oct_16_1630,temp,2020.1.3,None,
44,0,44,0,53.40496623333141,None,u,0.11736980000205222,53.39840769999864,None,,001,2020_Oct_16_1630,temp,2020.1.3,None,
45,0,45,0,53.551793433333415,None,u,0.12238699999943492,53.542597799998475,None,,001,2020_Oct_16_1630,temp,2020.1.3,None,
46,0,46,0,53.69885863333232,None,u,0.1204890000008163,53.68812759999855,None,,001,2020_Oct_16_1630,temp,2020.1.3,None,
47,0,47,0,53.8588459333337,None,u,0.11152219999712543,53.84877359999882,None,,001,2020_Oct_16_1630,temp,2020.1.3,None,
48,0,48,0,53.99411433333128,None,u,0.11087240000051679,53.985211600000184,None,,001,2020_Oct_16_1630,temp,2020.1.3,None,
49,0,49,0,54.14000543333216,None,u,0.12647119999746792,54.1301796000007,None,,001,2020_Oct_16_1630,temp,2020.1.3,None,
50,0,50,0,54.29872233333347,None,u,0.11265860000276007,54.28738719999819,None,,001,2020_Oct_16_1630,temp,2020.1.3,None,
51,0,51,0,54.4324315333329,None,u,0.11882580000019516,54.42248019999897,None,,001,2020_Oct_16_1630,temp,2020.1.3,None,
52,0,52,0,54.59249863333437,None,u,0.10764750000089407,54.582182599999214,None,,001,2020_Oct_16_1630,temp,2020.1.3,None,
53,0,53,0,54.72573383333341,None,u,0.1286586999995052,54.715291600001365,None,,001,2020_Oct_16_1630,temp,2020.1.3,None,
54,0,54,0,54.887297233334294,None,d,1.4310876999988977,54.87755889999971,None,,001,2020_Oct_16_1630,temp,2020.1.3,None,
55,0,55,0,56.35289803333265,None,d,0.12448360000053071,56.3430546999989,None,,001,2020_Oct_16_1630,temp,2020.1.3,None,
56,0,56,0,56.51312813333473,None,d,0.11312309999993886,56.502388599998085,None,,001,2020_Oct_16_1630,temp,2020.1.3,None,
57,0,57,0,56.673337933331396,None,d,0.06816579999940586,56.66311349999887,None,,001,2020_Oct_16_1630,temp,2020.1.3,None,
58,0,58,0,56.766660633333714,None,d,0.11309939999773633,56.75607310000123,None,,001,2020_Oct_16_1630,temp,2020.1.3,None,
59,0,59,0,56.8970304666657,None,d,0.11080919999949401,56.90217869999833,None,,001,2020_Oct_16_1630,temp,2020.1.3,None,
60,0,60,0,57.046709533333825,None,d,0.12344560000201454,57.03704490000018,None,,001,2020_Oct_16_1630,temp,2020.1.3,None,
61,0,61,0,57.206629233333416,None,d,0.1160983000008855,57.19651040000099,None,,001,2020_Oct_16_1630,temp,2020.1.3,None,
62,0,62,0,57.35335993333186,None,d,0.10786880000159726,57.342017700000724,None,,001,2020_Oct_16_1630,temp,2020.1.3,None,
63,0,63,0,57.48670433333294,None,d,0.11611089999860269,57.4769200999981,None,,001,2020_Oct_16_1630,temp,2020.1.3,None,
64,0,64,0,57.63358203333385,None,d,0.1096862999984296,57.62332609999794,None,,001,2020_Oct_16_1630,temp,2020.1.3,None,
65,0,65,0,57.766735433332116,None,d,0.1244193999991694,57.75679690000106,None,,001,2020_Oct_16_1630,temp,2020.1.3,None,
66,0,66,0,57.91360133333413,None,d,0.11998859999948763,57.90329650000058,None,,001,2020_Oct_16_1630,temp,2020.1.3,None,
67,0,67,0,58.074065433331754,None,d,0.11206049999964307,58.064218299998174,None,,001,2020_Oct_16_1630,temp,2020.1.3,None,
68,0,68,0,58.22098643333132,None,d,0.11336859999937587,58.21125399999801,None,,001,2020_Oct_16_1630,temp,2020.1.3,None,
69,0,69,0,58.35151396666721,None,d,0.1204649999999674,58.356664799997816,None,,001,2020_Oct_16_1630,temp,2020.1.3,None,
70,0,70,0,58.513659533332,None,d,0.12749929999699816,58.50245739999809,None,,001,2020_Oct_16_1630,temp,2020.1.3,None,
71,0,71,0,58.68742643333147,None,d,0.11153009999907226,58.677175400000124,None,,001,2020_Oct_16_1630,temp,2020.1.3,None,
72,0,72,0,58.83399873333158,None,d,0.12085320000187494,58.823410900000454,None,,001,2020_Oct_16_1630,temp,2020.1.3,None,
73,0,73,0,58.981562133333256,None,d,0.12819339999987278,58.97120609999911,None,,001,2020_Oct_16_1630,temp,2020.1.3,None,
74,0,74,0,59.1543013333326,None,d,0.11526040000171633,59.144380900001124,None,,001,2020_Oct_16_1630,temp,2020.1.3,None,
75,0,75,0,59.3008663333317,None,d,0.13478570000006584,59.291070399998716,None,,001,2020_Oct_16_1630,temp,2020.1.3,None,
76,0,76,0,59.46164723333325,None,d,0.09144089999972493,59.45033909999984,None,,001,2020_Oct_16_1630,temp,2020.1.3,None,
77,0,77,0,59.580681133331865,None,d,0.12372160000086296,59.57152320000023,None,,001,2020_Oct_16_1630,temp,2020.1.3,None,
78,0,78,0,59.728527033334586,None,d,0.13948729999901843,59.71807869999975,None,,001,2020_Oct_16_1630,temp,2020.1.3,None,
79,0,79,0,59.90111443333129,None,d,0.11278579999998328,59.89109430000099,None,,001,2020_Oct_16_1630,temp,2020.1.3,None,
80,0,80,0,60.04785313333244,None,d,0.12968389999878127,60.03739719999794,None,,001,2020_Oct_16_1630,temp,2020.1.3,None,
81,0,81,0,60.22231203333334,None,d,1.420212700002594,60.21216999999888,None,,001,2020_Oct_16_1630,temp,2020.1.3,None,
82,0,82,0,61.67500113333202,None,d,0.1123976999988372,61.66402089999974,None,,001,2020_Oct_16_1630,temp,2020.1.3,None,
83,0,83,0,61.79177666666534,None,d,0.10512480000033975,61.79646389999834,None,,001,2020_Oct_16_1630,temp,2020.1.3,None,
84,0,84,0,61.925001166666576,None,d,0.12000679999982822,61.929239699999016,None,,001,2020_Oct_16_1630,temp,2020.1.3,None,
85,0,85,0,62.102088533331454,None,d,0.09833010000147624,62.09220709999863,None,,001,2020_Oct_16_1630,temp,2020.1.3,None,
86,0,86,0,62.23517123333343,None,d,0.10279119999904651,62.224688099999184,None,,001,2020_Oct_16_1630,temp,2020.1.3,None,
87,0,87,0,62.36868323333377,None,d,0.10617099999944912,62.35764869999912,None,,001,2020_Oct_16_1630,temp,2020.1.3,None,
88,0,88,0,62.50209763333308,None,d,0.12516669999968144,62.49221029999899,None,,001,2020_Oct_16_1630,temp,2020.1.3,None,
89,0,89,0,62.66211603333116,None,u,0.9667337000028056,62.65170930000022,None,,001,2020_Oct_16_1630,temp,2020.1.3,None,
90,0,90,0,63.66246503333289,None,u,1.483848100000614,63.65187549999973,None,,001,2020_Oct_16_1630,temp,2020.1.3,None,
91,0,91,0,65.18276943333379,None,None,,65.17248560000007,None,,001,2020_Oct_16_1630,temp,2020.1.3,None,
92,0,92,0,70.19505576666803,None,d,2.8321912999999768,70.19762780000019,70.19762780000019,,001,2020_Oct_16_1630,temp,2020.1.3,None,
93,0,93,0,73.0659225333334,None,d,0.15589900000122725,73.05531169999813,None,,001,2020_Oct_16_1630,temp,2020.1.3,None,
94,0,94,0,73.25297573333276,None,d,0.13546839999980875,73.24374760000137,None,,001,2020_Oct_16_1630,temp,2020.1.3,None,
95,0,95,0,73.4128725333326,None,d,0.13215869999839924,73.40350399999807,None,,001,2020_Oct_16_1630,temp,2020.1.3,None,
96,0,96,0,73.5728374333344,None,u,1.7596344000012323,73.56354889999784,None,,001,2020_Oct_16_1630,temp,2020.1.3,None,
97,0,97,0,75.37374353333192,None,u,0.25089680000019143,75.36437300000034,None,,001,2020_Oct_16_1630,temp,2020.1.3,None,
98,0,98,0,75.65359673333344,None,u,0.2897993000005954,75.64411779999864,None,,001,2020_Oct_16_1630,temp,2020.1.3,None,
99,0,99,0,75.9871351333318,None,u,1.3235242999980983,75.97697619999963,None,,001,2020_Oct_16_1630,temp,2020.1.3,None,
100,0,100,0,77.33441713333426,None,u,1.0512087999995856,77.32434410000133,None,,001,2020_Oct_16_1630,temp,2020.1.3,None,
101,0,101,0,78.41433013333202,None,u,1.0524048000006587,78.40431220000028,None,,001,2020_Oct_16_1630,temp,2020.1.3,None,
102,0,102,0,79.49502073333181,None,u,0.7739970000002359,79.48479410000073,None,,001,2020_Oct_16_1630,temp,2020.1.3,None,
103,0,103,0,80.29522873333238,None,u,0.5118571000020893,80.28565549999985,None,,001,2020_Oct_16_1630,temp,2020.1.3,None,
104,0,104,0,80.84206663333364,None,u,0.3522670000020298,80.83149559999947,None,,001,2020_Oct_16_1630,temp,2020.1.3,None,
105,0,105,0,81.22856533333155,None,u,0.27564970000094036,81.21823849999782,None,,001,2020_Oct_16_1630,temp,2020.1.3,None,
106,0,106,0,81.54905833333444,None,u,0.1355753999996523,81.53844609999942,None,,001,2020_Oct_16_1630,temp,2020.1.3,None,
107,0,107,0,81.70928623333432,None,u,0.1431708999989496,81.69845910000004,None,,001,2020_Oct_16_1630,temp,2020.1.3,None,
108,0,108,0,81.8820804333341,None,u,0.17719899999792688,81.8716299000007,None,,001,2020_Oct_16_1630,temp,2020.1.3,None,
109,0,109,0,82.08271233333338,None,u,0.4869779999971797,82.07209729999886,None,,001,2020_Oct_16_1630,temp,2020.1.3,None,
110,0,110,0,82.61615183333245,None,u,0.4299061999990954,82.60460740000053,None,,001,2020_Oct_16_1630,temp,2020.1.3,None,
111,0,111,0,83.08307543333333,None,u,0.5410149000017554,83.07455850000042,None,,001,2020_Oct_16_1630,temp,2020.1.3,None,
112,0,112,0,83.65640303333251,None,d,1.0806316999987757,83.64668270000038,None,,001,2020_Oct_16_1630,temp,2020.1.3,None,
113,0,113,0,84.76386083333321,None,d,0.13680249999742955,84.75286499999856,None,,001,2020_Oct_16_1630,temp,2020.1.3,None,
114,0,114,0,84.92373483333407,None,d,0.13427320000118925,84.91275079999832,None,,001,2020_Oct_16_1630,temp,2020.1.3,None,
115,0,115,0,85.09692023333312,None,d,0.09144319999904837,85.08538229999976,None,,001,2020_Oct_16_1630,temp,2020.1.3,None,
116,0,116,0,85.23052993333161,None,d,0.0883097000005364,85.22131770000124,None,,001,2020_Oct_16_1630,temp,2020.1.3,None,
117,0,117,0,85.36486103333348,None,d,0.10037350000129663,85.35579669999788,None,,001,2020_Oct_16_1630,temp,2020.1.3,None,
118,0,118,0,85.49783773333232,None,d,0.10392260000298847,85.48767059999955,None,,001,2020_Oct_16_1630,temp,2020.1.3,None,
119,0,119,0,85.6446228333339,None,d,0.0893605999990541,85.63399529999879,None,,001,2020_Oct_16_1630,temp,2020.1.3,None,
120,0,120,0,85.77804663333202,None,d,0.09529449999899953,85.76783459999933,None,,001,2020_Oct_16_1630,temp,2020.1.3,None,
121,0,121,0,85.91136433333352,None,d,0.10205619999760529,85.899426699998,None,,001,2020_Oct_16_1630,temp,2020.1.3,None,
122,0,122,0,86.0445031333334,None,d,0.09870460000092862,86.03385250000065,None,,001,2020_Oct_16_1630,temp,2020.1.3,None,
123,0,123,0,86.17832813333419,None,u,4.064266400000633,86.16818860000058,None,,001,2020_Oct_16_1630,temp,2020.1.3,None,
124,0,124,0,90.27176213333271,None,u,0.1909386999977869,90.26182039999912,None,,001,2020_Oct_16_1630,temp,2020.1.3,None,
125,0,125,0,90.48651023333198,None,u,0.13720290000128443,90.47673389999909,None,,001,2020_Oct_16_1630,temp,2020.1.3,None,
126,0,126,0,90.65970053333197,None,u,0.12637119999999413,90.65091269999903,None,,001,2020_Oct_16_1630,temp,2020.1.3,None,
127,0,127,0,90.81915633333168,None,u,0.12243790000138688,90.81015969999862,None,,001,2020_Oct_16_1630,temp,2020.1.3,None,
128,0,128,0,90.96621453333185,None,u,0.601357100000314,90.95823549999841,None,,001,2020_Oct_16_1630,temp,2020.1.3,None,
129,0,129,0,91.60597013333293,None,u,0.5420210000011139,91.59562069999811,None,,001,2020_Oct_16_1630,temp,2020.1.3,None,
130,0,130,0,92.17947273333314,None,u,0.5114644999994198,92.16797339999903,None,,001,2020_Oct_16_1630,temp,2020.1.3,None,
131,0,131,0,92.71288413333289,None,u,0.7018086000025505,92.7035493000003,None,,001,2020_Oct_16_1630,temp,2020.1.3,None,
132,0,132,0,93.4464264333333,None,u,0.6459959000021627,93.43708010000046,None,,001,2020_Oct_16_1630,temp,2020.1.3,None,
133,0,133,0,94.12654383333259,None,u,0.5469458000006853,94.11563039999965,None,,001,2020_Oct_16_1630,temp,2020.1.3,None,
134,0,134,0,94.70036163333182,None,d,1.2238620999996783,94.69072460000098,None,,001,2020_Oct_16_1630,temp,2020.1.3,None,
135,0,135,0,95.96754503333116,None,d,0.12449759999799426,95.95619649999935,None,,001,2020_Oct_16_1630,temp,2020.1.3,None,
136,0,136,0,96.11544473333245,None,d,0.09812229999806732,96.10474410000097,None,,001,2020_Oct_16_1630,temp,2020.1.3,None,
137,0,137,0,96.23538513333236,None,d,0.11436329999924055,96.22757450000063,None,,001,2020_Oct_16_1630,temp,2020.1.3,None,
138,0,138,0,96.38093013333176,None,d,0.11128520000056596,96.37033289999817,None,,001,2020_Oct_16_1630,temp,2020.1.3,None,
139,0,139,0,96.5144217333332,None,d,0.11491430000023684,96.50356570000076,None,,001,2020_Oct_16_1630,temp,2020.1.3,None,
140,0,140,0,96.6611084333313,None,d,0.10929110000142828,96.65165450000131,None,,001,2020_Oct_16_1630,temp,2020.1.3,None,
141,0,141,0,96.7948024333314,None,d,0.11592790000213427,96.78474859999915,None,,001,2020_Oct_16_1630,temp,2020.1.3,None,
142,0,142,0,96.94113093333411,None,d,0.113541399998212,96.93019450000065,None,,001,2020_Oct_16_1630,temp,2020.1.3,None,
143,0,143,0,97.1015003333346,None,d,0.08921200000258978,97.09257969999817,None,,001,2020_Oct_16_1630,temp,2020.1.3,None,
144,0,144,0,97.23449113333166,None,d,0.10105330000078538,97.22494039999947,None,,001,2020_Oct_16_1630,temp,2020.1.3,None,
145,0,145,0,97.36927263333249,None,d,0.10636090000116383,97.36544069999945,None,,001,2020_Oct_16_1630,temp,2020.1.3,None,
146,0,146,0,97.51552563333146,None,d,0.08779100000174367,97.50561490000109,None,,001,2020_Oct_16_1630,temp,2020.1.3,None,
147,0,147,0,97.6364133333341,None,u,2.9089677999982086,97.62777920000008,None,,001,2020_Oct_16_1630,temp,2020.1.3,None,
148,0,148,0,100.58268783333236,None,u,0.11726479999924777,100.5724569999984,None,,001,2020_Oct_16_1630,temp,2020.1.3,None,
149,0,149,0,100.72931233333341,None,u,0.1342688000004273,100.71828950000054,None,,001,2020_Oct_16_1630,temp,2020.1.3,None,
150,0,150,0,100.88914853333384,None,u,0.13449620000028517,100.8785014999994,None,,001,2020_Oct_16_1630,temp,2020.1.3,None,
151,0,151,0,101.06293173333373,None,u,0.9100988999998663,101.05295489999844,None,,001,2020_Oct_16_1630,temp,2020.1.3,None,
152,0,152,0,101.99681123333406,None,u,0.5456892000001972,101.98666840000078,None,,001,2020_Oct_16_1630,temp,2020.1.3,None,
153,0,153,0,102.56993543333422,None,u,0.7699780000002647,102.55861100000038,None,,001,2020_Oct_16_1630,temp,2020.1.3,None,
154,0,154,0,103.37018613333251,None,u,1.8319044999989273,103.35881900000095,None,,001,2020_Oct_16_1630,temp,2020.1.3,None,
155,0,155,0,105.22438373333401,None,u,0.8226190999994287,105.21352579999802,None,,001,2020_Oct_16_1630,temp,2020.1.3,None,
156,0,156,0,106.09117383333117,None,u,0.384365699999762,106.08106820000103,None,,001,2020_Oct_16_1630,temp,2020.1.3,None,
157,0,157,0,106.50487223333451,None,d,1.9047972000007576,106.49487500000032,None,,001,2020_Oct_16_1630,temp,2020.1.3,None,
158,0,158,0,108.43883673333451,None,d,0.11044449999826611,108.42794270000013,None,,001,2020_Oct_16_1630,temp,2020.1.3,None,
159,0,159,0,108.57228913333213,None,d,0.11063149999972666,108.5624147999988,None,,001,2020_Oct_16_1630,temp,2020.1.3,None,
160,0,160,0,108.70589813333257,None,d,0.1109641000002739,108.69684069999857,None,,001,2020_Oct_16_1630,temp,2020.1.3,None,
161,0,161,0,108.85202683333458,None,d,0.11181070000020554,108.84405909999987,None,,001,2020_Oct_16_1630,temp,2020.1.3,None,
162,0,162,0,108.99899393333229,None,d,0.09558649999962654,108.99032599999919,None,,001,2020_Oct_16_1630,temp,2020.1.3,None,
163,0,163,0,109.11945293333386,None,d,0.12454149999757647,109.11083370000051,None,,001,2020_Oct_16_1630,temp,2020.1.3,None,
164,0,164,0,109.27876813333253,None,d,0.10112970000045607,109.27296529999876,None,,001,2020_Oct_16_1630,temp,2020.1.3,None,
165,0,165,0,109.41225073333456,None,d,0.10092749999967054,109.40666200000123,None,,001,2020_Oct_16_1630,temp,2020.1.3,None,
166,0,166,0,109.54570263333201,None,d,0.11543539999911445,109.53517360000114,None,,001,2020_Oct_16_1630,temp,2020.1.3,None,
167,0,167,0,109.70583743333239,None,d,0.09724450000067009,109.69611839999925,None,,001,2020_Oct_16_1630,temp,2020.1.3,None,
168,0,168,0,109.83915743333321,None,d,0.10830039999927976,109.8291664999997,None,,001,2020_Oct_16_1630,temp,2020.1.3,None,
169,0,169,0,109.97274913333288,None,u,1.194660199998907,109.96304940000118,None,,001,2020_Oct_16_1630,temp,2020.1.3,None,
170,0,170,0,111.20011603333162,None,u,1.0672862000028545,111.18967960000009,None,,001,2020_Oct_16_1630,temp,2020.1.3,None,
171,0,171,0,112.29340203333462,None,None,,112.28394929999922,None,,001,2020_Oct_16_1630,temp,2020.1.3,None,
172,0,172,0,117.29210626666487,None,u,1.2538616000019829,117.29378780000116,117.29378780000116,,001,2020_Oct_16_1630,temp,2020.1.3,None,
173,0,173,0,118.58925083333136,None,u,0.7384920999975293,118.57953759999873,None,,001,2020_Oct_16_1630,temp,2020.1.3,None,
174,0,174,0,119.36271873333365,None,u,1.4512566999983392,119.35278280000057,None,,001,2020_Oct_16_1630,temp,2020.1.3,None,
175,0,175,0,120.84342793333465,None,u,0.9303123999998206,120.83362699999998,None,,001,2020_Oct_16_1630,temp,2020.1.3,None,
176,0,176,0,121.80376763333382,None,u,1.2678407999992487,121.79346820000137,None,,001,2020_Oct_16_1630,temp,2020.1.3,None,
177,0,177,0,123.09750403333285,None,u,0.8792334999998275,123.08560209999996,None,,001,2020_Oct_16_1630,temp,2020.1.3,None,
178,0,178,0,124.00448603333328,None,u,1.6133082000014838,123.99445139999807,None,,001,2020_Oct_16_1630,temp,2020.1.3,None,
179,0,179,0,125.6449239333347,None,d,1.4916264000021329,125.63443980000011,None,,001,2020_Oct_16_1630,temp,2020.1.3,None,
180,0,180,0,127.1655964333336,None,d,0.495778500000597,127.1547043999999,None,,001,2020_Oct_16_1630,temp,2020.1.3,None,
181,0,181,0,127.68590323333459,None,d,0.12029610000172397,127.67523200000142,None,,001,2020_Oct_16_1630,temp,2020.1.3,None,
182,0,182,0,127.83378723333274,None,d,0.11642439999923226,127.8241248000013,None,,001,2020_Oct_16_1630,temp,2020.1.3,None,
183,0,183,0,127.97929813333442,None,d,0.12254069999835338,127.96922210000048,None,,001,2020_Oct_16_1630,temp,2020.1.3,None,
184,0,184,0,128.12638223333175,None,d,0.1127812000013364,128.11539220000122,None,,001,2020_Oct_16_1630,temp,2020.1.3,None,
185,0,185,0,128.2858717333334,None,d,0.0967211999995925,128.27546549999897,None,,001,2020_Oct_16_1630,temp,2020.1.3,None,
186,0,186,0,128.4195137333341,None,d,0.10649009999906411,128.40904210000008,None,,001,2020_Oct_16_1630,temp,2020.1.3,None,
187,0,187,0,128.5528120333334,None,d,0.12526419999994687,128.54268479999882,None,,001,2020_Oct_16_1630,temp,2020.1.3,None,
188,0,188,0,128.7003058333326,None,u,0.9382194000027084,128.68878349999795,None,,001,2020_Oct_16_1630,temp,2020.1.3,None,
189,0,189,0,129.65987393333177,None,u,0.6874081999994814,129.64850889999798,None,,001,2020_Oct_16_1630,temp,2020.1.3,None,
190,0,190,0,130.38012883333118,None,d,1.09558990000005,130.3695560999986,None,,001,2020_Oct_16_1630,temp,2020.1.3,None,
191,0,191,0,131.5006415333342,None,None,,131.49030199999834,None,,001,2020_Oct_16_1630,temp,2020.1.3,None,
192,0,192,0,136.51238026666786,None,u,1.188583800001652,136.51502439999967,136.51502439999967,,001,2020_Oct_16_1630,temp,2020.1.3,None,
193,0,193,0,137.74287003333353,None,None,,137.73188260000097,None,,001,2020_Oct_16_1630,temp,2020.1.3,None,
194,0,194,0,142.75469296666805,None,u,1.7636385000005248,142.75653049999892,142.75653049999892,,001,2020_Oct_16_1630,temp,2020.1.3,None,
195,0,195,0,144.57209693333476,None,u,2.5993502999990596,144.56144779999886,None,,001,2020_Oct_16_1630,temp,2020.1.3,None,
196,0,196,0,147.19946923333242,None,u,0.13300549999985378,147.18897579999975,None,,001,2020_Oct_16_1630,temp,2020.1.3,None,
197,0,197,0,147.35955403333406,None,u,0.12308990000019548,147.34909400000106,None,,001,2020_Oct_16_1630,temp,2020.1.3,None,
198,0,198,0,147.51994383333346,None,u,0.1267260000022361,147.50919570000042,None,,001,2020_Oct_16_1630,temp,2020.1.3,None,
199,0,199,0,147.67963793333234,None,u,0.11316979999901378,147.66987660000086,None,,001,2020_Oct_16_1630,temp,2020.1.3,None,
200,0,200,0,147.82717233333148,None,u,0.11717029999999795,147.81672740000067,None,,001,2020_Oct_16_1630,temp,2020.1.3,None,
201,0,201,0,147.9731530333343,None,u,1.1616551999977673,147.9627025000009,None,,001,2020_Oct_16_1630,temp,2020.1.3,None,
202,0,202,0,149.1604061333315,None,u,0.9117532999989635,149.14995279999857,None,,001,2020_Oct_16_1630,temp,2020.1.3,None,
203,0,203,0,150.094380733332,None,d,2.1887873000014224,150.08274789999996,None,,001,2020_Oct_16_1630,temp,2020.1.3,None,
204,0,204,0,152.30819713333455,None,d,0.13507590000153868,152.29703280000103,None,,001,2020_Oct_16_1630,temp,2020.1.3,None,
205,0,205,0,152.48155243333218,None,d,0.10111089999918477,152.47196809999878,None,,001,2020_Oct_16_1630,temp,2020.1.3,None,
206,0,206,0,152.62839043333275,None,d,0.08473919999960344,152.61781029999838,None,,001,2020_Oct_16_1630,temp,2020.1.3,None,
207,0,207,0,152.73510073333142,None,d,0.11787750000075903,152.72445059999882,None,,001,2020_Oct_16_1630,temp,2020.1.3,None,
208,0,208,0,152.87867096666767,None,d,0.1024345000005269,152.8840154999998,None,,001,2020_Oct_16_1630,temp,2020.1.3,None,
209,0,209,0,153.0285715333344,None,d,0.11916290000226581,153.01834849999796,None,,001,2020_Oct_16_1630,temp,2020.1.3,None,
210,0,210,0,153.17495833333356,None,d,0.10457740000128979,153.16356150000138,None,,001,2020_Oct_16_1630,temp,2020.1.3,None,
211,0,211,0,153.30820373333387,None,d,0.10441889999856357,153.2986060000003,None,,001,2020_Oct_16_1630,temp,2020.1.3,None,
212,0,212,0,153.44185473333397,None,d,0.12327189999996335,153.43168249999871,None,,001,2020_Oct_16_1630,temp,2020.1.3,None,
213,0,213,0,153.58864663333276,None,d,0.13124140000218176,153.5779177000004,None,,001,2020_Oct_16_1630,temp,2020.1.3,None,
214,0,214,0,153.76196333333115,None,None,,153.75157190000027,None,,001,2020_Oct_16_1630,temp,2020.1.3,None,
215,0,215,0,158.77429446666454,None,None,,158.7767504000003,158.7767504000003,,001,2020_Oct_16_1630,temp,2020.1.3,None,
216,0,216,0,163.80229566666483,168.8143964999981,None,,163.80523399999947,163.80523399999947,,001,2020_Oct_16_1630,temp,2020.1.3,None,
217,0,217,0,168.8310631666648,None,None,,168.83284840000124,168.83284840000124,,001,2020_Oct_16_1630,temp,2020.1.3,None,
218,0,218,0,173.83252716666564,173.83564190000106,None,,173.83564190000106,173.83564190000106,,001,2020_Oct_16_1630,temp,2020.1.3,None,
219,0,219,0,178.84766916666584,None,None,,178.8508460999983,178.8508460999983,,001,2020_Oct_16_1630,temp,2020.1.3,None,
220,0,220,0,183.8629585666679,None,None,,183.86672869999893,183.86672869999893,,001,2020_Oct_16_1630,temp,2020.1.3,None,
221,0,221,0,188.87807826666565,None,None,,188.88060399999813,188.88060399999813,,001,2020_Oct_16_1630,temp,2020.1.3,None,
222,0,222,0,193.88403616666645,None,None,,193.8862984999978,193.8862984999978,,001,2020_Oct_16_1630,temp,2020.1.3,None,
