trials.thisRepN,trials.thisTrialN,trials.thisN,trials.thisIndex,text.started,text.stopped,key_resp_2.keys,key_resp_2.rt,key_resp_2.started,key_resp_2.stopped,sound_1.started,sound_1.stopped,key_resp.keys,key_resp.rt,key_resp.started,key_resp.stopped,text_2.started,text_2.stopped,participant,input,session,date,expName,psychopyVersion,frameRate,
,,,,60.05218069994589,60.05218069994589,space,0.41164359997492284,60.05218069994589,None,,,,,,,,,,0.2,001,2020_Oct_19_1328,temp,2020.1.3,None,
0,0,0,0,,,,,,,60.50557973329754,None,u,4.081070200016256,60.504171499982476,None,60.504171499982476,None,,0.2,001,2020_Oct_19_1328,temp,2020.1.3,None,
1,0,1,0,,,,,,,64.62674143329107,None,u,0.10743010003352538,64.62802629999351,None,64.62802629999351,None,,0.2,001,2020_Oct_19_1328,temp,2020.1.3,None,
2,0,2,0,,,,,,,64.77363383328387,None,u,0.09763549995841458,64.7767830999801,None,64.7767830999801,None,,0.2,001,2020_Oct_19_1328,temp,2020.1.3,None,
3,0,3,0,,,,,,,64.90698783333258,None,u,0.10708250000607222,64.90927469998132,None,64.90927469998132,None,,0.2,001,2020_Oct_19_1328,temp,2020.1.3,None,
4,0,4,0,,,,,,,65.05360143329793,None,u,0.10205589997349307,65.0556470999727,None,65.0556470999727,None,,0.2,001,2020_Oct_19_1328,temp,2020.1.3,None,
5,0,5,0,,,,,,,65.21359053330573,None,u,0.09265740000410005,65.21323639998445,None,65.21323639998445,None,,0.2,001,2020_Oct_19_1328,temp,2020.1.3,None,
6,0,6,0,,,,,,,65.34720153333231,None,u,0.10603540000738576,65.34834059997229,None,65.34834059997229,None,,0.2,001,2020_Oct_19_1328,temp,2020.1.3,None,
7,0,7,0,,,,,,,65.49376243330383,None,u,0.10827719996450469,65.49542449996807,None,65.49542449996807,None,,0.2,001,2020_Oct_19_1328,temp,2020.1.3,None,
8,0,8,0,,,,,,,65.64076683333454,None,u,0.09921820001909509,65.64229309995426,None,65.64229309995426,None,,0.2,001,2020_Oct_19_1328,temp,2020.1.3,None,
9,0,9,0,,,,,,,65.7915054999874,None,u,0.10062500002095476,65.78759839996928,None,65.78759839996928,None,,0.2,001,2020_Oct_19_1328,temp,2020.1.3,None,
10,0,10,0,,,,,,,65.92107863329196,None,u,0.11759400001028553,65.92714309995063,None,65.92714309995063,None,,0.2,001,2020_Oct_19_1328,temp,2020.1.3,None,
11,0,11,0,,,,,,,66.09429413331284,None,u,0.09622289997059852,66.09799239999847,None,66.09799239999847,None,,0.2,001,2020_Oct_19_1328,temp,2020.1.3,None,
12,0,12,0,,,,,,,66.22779453331216,None,u,0.11422390001825988,66.2317633999628,None,66.2317633999628,None,,0.2,001,2020_Oct_19_1328,temp,2020.1.3,None,
13,0,13,0,,,,,,,66.42112896662826,None,u,0.08195109997177497,66.41741199995158,None,66.41741199995158,None,,0.2,001,2020_Oct_19_1328,temp,2020.1.3,None,
14,0,14,0,,,,,,,66.5356997333079,None,u,0.08680289995390922,66.54488349996973,None,66.54488349996973,None,,0.2,001,2020_Oct_19_1328,temp,2020.1.3,None,
15,0,15,0,,,,,,,66.6678157333013,None,u,0.1027157999924384,66.67523269995581,None,66.67523269995581,None,,0.2,001,2020_Oct_19_1328,temp,2020.1.3,None,
16,0,16,0,,,,,,,66.82833953330604,None,u,0.08551860001171008,66.83460799994646,None,66.83460799994646,None,,0.2,001,2020_Oct_19_1328,temp,2020.1.3,None,
17,0,17,0,,,,,,,66.96278233332171,None,u,0.10516809998080134,66.96705709997332,None,66.96705709997332,None,,0.2,001,2020_Oct_19_1328,temp,2020.1.3,None,
18,0,18,0,,,,,,,67.12736279995879,None,u,0.07941360003314912,67.12995679996675,None,67.12995679996675,None,,0.2,001,2020_Oct_19_1328,temp,2020.1.3,None,
19,0,19,0,,,,,,,67.2545035333101,None,u,0.09355190000496805,67.26221199997235,None,67.26221199997235,None,,0.2,001,2020_Oct_19_1328,temp,2020.1.3,None,
20,0,20,0,,,,,,,67.38797593332905,None,u,0.11495660000946373,67.39465019997442,None,67.39465019997442,None,,0.2,001,2020_Oct_19_1328,temp,2020.1.3,None,
21,0,21,0,,,,,,,67.56178903330195,None,u,0.09696570003870875,67.56865879998077,None,67.56865879998077,None,,0.2,001,2020_Oct_19_1328,temp,2020.1.3,None,
22,0,22,0,,,,,,,67.71002013330192,None,u,0.11295869998866692,67.71393709996482,None,67.71393709996482,None,,0.2,001,2020_Oct_19_1328,temp,2020.1.3,None,
23,0,23,0,,,,,,,67.86847063329381,None,u,0.1061786999925971,67.87159589998191,None,67.87159589998191,None,,0.2,001,2020_Oct_19_1328,temp,2020.1.3,None,
24,0,24,0,,,,,,,68.01505093329664,None,u,0.1215811999863945,68.01690249994863,None,68.01690249994863,None,,0.2,001,2020_Oct_19_1328,temp,2020.1.3,None,
25,0,25,0,,,,,,,68.17621703330272,None,u,0.11230059998342767,68.17774789995747,None,68.17774789995747,None,,0.2,001,2020_Oct_19_1328,temp,2020.1.3,None,
26,0,26,0,,,,,,,68.33998319996753,None,u,0.10688520001713187,68.33584629994584,None,68.33584629994584,None,,0.2,001,2020_Oct_19_1328,temp,2020.1.3,None,
27,0,27,0,,,,,,,68.48237163329807,None,u,0.10510450002038851,68.48531809996348,None,68.48531809996348,None,,0.2,001,2020_Oct_19_1328,temp,2020.1.3,None,
28,0,28,0,,,,,,,68.64242993330893,None,u,0.10280839999904856,68.64439039997524,None,68.64439039997524,None,,0.2,001,2020_Oct_19_1328,temp,2020.1.3,None,
29,0,29,0,,,,,,,68.7895573332867,None,u,0.11783989996183664,68.79272639995907,None,68.79272639995907,None,,0.2,001,2020_Oct_19_1328,temp,2020.1.3,None,
30,0,30,0,,,,,,,68.9543569333114,None,u,0.10931660002097487,68.95874319999712,None,68.95874319999712,None,,0.2,001,2020_Oct_19_1328,temp,2020.1.3,None,
31,0,31,0,,,,,,,69.12576320000225,None,u,0.10590490000322461,69.12052309996216,None,69.12052309996216,None,,0.2,001,2020_Oct_19_1328,temp,2020.1.3,None,
32,0,32,0,,,,,,,69.28573389998637,None,u,0.10034380003344268,69.28437419998227,None,69.28437419998227,None,,0.2,001,2020_Oct_19_1328,temp,2020.1.3,None,
33,0,33,0,,,,,,,69.44276433328244,None,u,0.09286770003382117,69.45000439998694,None,69.45000439998694,None,,0.2,001,2020_Oct_19_1328,temp,2020.1.3,None,
34,0,34,0,,,,,,,69.57634243329133,None,u,0.10403440002119169,69.58211889996892,None,69.58211889996892,None,,0.2,001,2020_Oct_19_1328,temp,2020.1.3,None,
35,0,35,0,,,,,,,69.72260493331899,None,u,0.11301660002209246,69.72641750000184,None,69.72641750000184,None,,0.2,001,2020_Oct_19_1328,temp,2020.1.3,None,
36,0,36,0,,,,,,,69.88338433329093,None,u,0.10982640000293031,69.88673929998185,None,69.88673929998185,None,,0.2,001,2020_Oct_19_1328,temp,2020.1.3,None,
37,0,37,0,,,,,,,70.04303403333373,None,u,0.10045560001162812,70.04490239999723,None,70.04490239999723,None,,0.2,001,2020_Oct_19_1328,temp,2020.1.3,None,
38,0,38,0,,,,,,,70.18996003329133,None,u,0.09872680000262335,70.19089159998111,None,70.19089159998111,None,,0.2,001,2020_Oct_19_1328,temp,2020.1.3,None,
39,0,39,0,,,,,,,70.32326343330399,None,u,0.11195390002103522,70.32476920000045,None,70.32476920000045,None,,0.2,001,2020_Oct_19_1328,temp,2020.1.3,None,
40,0,40,0,,,,,,,70.4690981333338,None,u,0.11701270000776276,70.47159439994721,None,70.47159439994721,None,,0.2,001,2020_Oct_19_1328,temp,2020.1.3,None,
41,0,41,0,,,,,,,70.63011683332346,None,u,0.10361210000701249,70.62981219997164,None,70.62981219997164,None,,0.2,001,2020_Oct_19_1328,temp,2020.1.3,None,
42,0,42,0,,,,,,,70.78915453330458,None,u,0.1008243000251241,70.7901648999541,None,70.7901648999541,None,,0.2,001,2020_Oct_19_1328,temp,2020.1.3,None,
43,0,43,0,,,,,,,70.92419003329317,None,u,0.13069649995304644,70.92817029997241,None,70.92817029997241,None,,0.2,001,2020_Oct_19_1328,temp,2020.1.3,None,
44,0,44,0,,,,,,,71.09657773329721,None,u,0.11609149997821078,71.0958712999709,None,71.0958712999709,None,,0.2,001,2020_Oct_19_1328,temp,2020.1.3,None,
45,0,45,0,,,,,,,71.25708633330262,None,u,0.11698589997831732,71.2574520999915,None,71.2574520999915,None,,0.2,001,2020_Oct_19_1328,temp,2020.1.3,None,
46,0,46,0,,,,,,,71.41604903329474,None,u,0.11798079998698086,71.41460009996081,None,71.41460009996081,None,,0.2,001,2020_Oct_19_1328,temp,2020.1.3,None,
47,0,47,0,,,,,,,71.58950153331583,None,u,0.0696606999845244,71.58787399996072,None,71.58787399996072,None,,0.2,001,2020_Oct_19_1328,temp,2020.1.3,None,
48,0,48,0,,,,,,,71.69613283332049,None,u,0.10138140001799911,71.69621089997236,None,71.69621089997236,None,,0.2,001,2020_Oct_19_1328,temp,2020.1.3,None,
49,0,49,0,,,,,,,71.8306746333333,None,u,0.12442379997810349,71.8305414999486,None,71.8305414999486,None,,0.2,001,2020_Oct_19_1328,temp,2020.1.3,None,
50,0,50,0,,,,,,,71.99034083332711,None,u,0.14649850002024323,71.98812259995611,None,71.98812259995611,None,,0.2,001,2020_Oct_19_1328,temp,2020.1.3,None,
51,0,51,0,,,,,,,72.18983143330163,None,u,0.11651789996540174,72.1862663999782,None,72.1862663999782,None,,0.2,001,2020_Oct_19_1328,temp,2020.1.3,None,
52,0,52,0,,,,,,,72.3364566332971,None,u,0.11645100003806874,72.33389259997057,None,72.33389259997057,None,,0.2,001,2020_Oct_19_1328,temp,2020.1.3,None,
53,0,53,0,,,,,,,72.48307483329748,None,u,0.09438650001538917,72.48283389996504,None,72.48283389996504,None,,0.2,001,2020_Oct_19_1328,temp,2020.1.3,None,
54,0,54,0,,,,,,,72.61641833332445,None,u,0.09405000001424924,72.61462819995359,None,72.61462819995359,None,,0.2,001,2020_Oct_19_1328,temp,2020.1.3,None,
55,0,55,0,,,,,,,72.74975133332967,None,u,0.13030659995274618,72.74691139999777,None,72.74691139999777,None,,0.2,001,2020_Oct_19_1328,temp,2020.1.3,None,
56,0,56,0,,,,,,,72.92310843332282,None,u,0.10404300002846867,72.9207696999656,None,72.9207696999656,None,,0.2,001,2020_Oct_19_1328,temp,2020.1.3,None,
57,0,57,0,,,,,,,73.0575248333121,None,u,0.12088110001059249,73.06371949997265,None,73.06371949997265,None,,0.2,001,2020_Oct_19_1328,temp,2020.1.3,None,
58,0,58,0,,,,,,,73.23515639996621,None,u,0.0877358999568969,73.23699429997941,None,73.23699429997941,None,,0.2,001,2020_Oct_19_1328,temp,2020.1.3,None,
59,0,59,0,,,,,,,73.36364713329434,None,u,0.08383159997174516,73.36658399994485,None,73.36658399994485,None,,0.2,001,2020_Oct_19_1328,temp,2020.1.3,None,
60,0,60,0,,,,,,,73.48382113333403,None,u,0.11653670005034655,73.48592459998326,None,73.48592459998326,None,,0.2,001,2020_Oct_19_1328,temp,2020.1.3,None,
61,0,61,0,,,,,,,73.64427763329198,None,u,0.16322370001580566,73.64757599995937,None,73.64757599995937,None,,0.2,001,2020_Oct_19_1328,temp,2020.1.3,None,
62,0,62,0,,,,,,,73.84351923329135,None,u,0.14289660000940785,73.84698669996578,None,73.84698669996578,None,,0.2,001,2020_Oct_19_1328,temp,2020.1.3,None,
63,0,63,0,,,,,,,74.03038803331631,None,u,0.10200740001164377,74.03213929996127,None,74.03213929996127,None,,0.2,001,2020_Oct_19_1328,temp,2020.1.3,None,
64,0,64,0,,,,,,,74.17773183331204,None,u,0.15261359995929524,74.1818004999659,None,74.1818004999659,None,,0.2,001,2020_Oct_19_1328,temp,2020.1.3,None,
65,0,65,0,,,,,,,74.37712313328714,None,u,0.11258019995875657,74.3775900999899,None,74.3775900999899,None,,0.2,001,2020_Oct_19_1328,temp,2020.1.3,None,
66,0,66,0,,,,,,,74.5371488332826,None,u,0.08861059998162091,74.53724579996197,None,74.53724579996197,None,,0.2,001,2020_Oct_19_1328,temp,2020.1.3,None,
67,0,67,0,,,,,,,74.67106643331547,None,u,0.10861979995388538,74.67093239998212,None,74.67093239998212,None,,0.2,001,2020_Oct_19_1328,temp,2020.1.3,None,
68,0,68,0,,,,,,,74.81723213330454,None,u,0.1016121000284329,74.81682359997649,None,74.81682359997649,None,,0.2,001,2020_Oct_19_1328,temp,2020.1.3,None,
69,0,69,0,,,,,,,74.95266753331137,None,u,0.10807709995424375,74.95542259997455,None,74.95542259997455,None,,0.2,001,2020_Oct_19_1328,temp,2020.1.3,None,
70,0,70,0,,,,,,,75.09882303328098,None,u,0.11983979999786243,75.09950749995187,None,75.09950749995187,None,,0.2,001,2020_Oct_19_1328,temp,2020.1.3,None,
71,0,71,0,,,,,,,75.27204713330914,None,u,0.09227359999204054,75.27318119996926,None,75.27318119996926,None,,0.2,001,2020_Oct_19_1328,temp,2020.1.3,None,
72,0,72,0,,,,,,,75.40498773329503,None,u,0.10999100003391504,75.40523579996079,None,75.40523579996079,None,,0.2,001,2020_Oct_19_1328,temp,2020.1.3,None,
73,0,73,0,,,,,,,75.55171633332114,None,u,0.12306680000619963,75.55168689996935,None,75.55168689996935,None,,0.2,001,2020_Oct_19_1328,temp,2020.1.3,None,
74,0,74,0,,,,,,,75.71075633331978,None,u,0.1103311000042595,75.71227209997596,None,75.71227209997596,None,,0.2,001,2020_Oct_19_1328,temp,2020.1.3,None,
75,0,75,0,,,,,,,75.8574665333222,None,u,0.10857040004339069,75.85757199994987,None,75.85757199994987,None,,0.2,001,2020_Oct_19_1328,temp,2020.1.3,None,
76,0,76,0,,,,,,,76.0197585332867,None,u,0.09372669999720529,76.02038989996072,None,76.02038989996072,None,,0.2,001,2020_Oct_19_1328,temp,2020.1.3,None,
77,0,77,0,,,,,,,76.15201483330068,None,u,0.10611340001923963,76.15253449999727,None,76.15253449999727,None,,0.2,001,2020_Oct_19_1328,temp,2020.1.3,None,
78,0,78,0,,,,,,,76.29863633332619,None,u,0.12090279994299635,76.30020639998838,None,76.30020639998838,None,,0.2,001,2020_Oct_19_1328,temp,2020.1.3,None,
79,0,79,0,,,,,,,76.45775983332035,None,u,0.10995369998272508,76.45751229999587,None,76.45751229999587,None,,0.2,001,2020_Oct_19_1328,temp,2020.1.3,None,
80,0,80,0,,,,,,,76.61789803329933,None,u,0.11656779999611899,76.61736979999114,None,76.61736979999114,None,,0.2,001,2020_Oct_19_1328,temp,2020.1.3,None,
81,0,81,0,,,,,,,76.77793963329944,None,u,0.12434069998562336,76.7764496000018,None,76.7764496000018,None,,0.2,001,2020_Oct_19_1328,temp,2020.1.3,None,
82,0,82,0,,,,,,,76.9516760333286,None,u,0.10167400003410876,76.95040409994544,None,76.95040409994544,None,,0.2,001,2020_Oct_19_1328,temp,2020.1.3,None,
83,0,83,0,,,,,,,77.08492633328618,None,u,0.1289602000033483,77.08399189996999,None,77.08399189996999,None,,0.2,001,2020_Oct_19_1328,temp,2020.1.3,None,
84,0,84,0,,,,,,,77.25811983331417,None,u,0.1147977999644354,77.25625539995963,None,77.25625539995963,None,,0.2,001,2020_Oct_19_1328,temp,2020.1.3,None,
85,0,85,0,,,,,,,77.41837283329417,None,u,0.12062999996123835,77.41664669994498,None,77.41664669994498,None,,0.2,001,2020_Oct_19_1328,temp,2020.1.3,None,
86,0,86,0,,,,,,,77.57858823327891,None,u,0.11706040002172813,77.57696729997406,None,77.57696729997406,None,,0.2,001,2020_Oct_19_1328,temp,2020.1.3,None,
87,0,87,0,,,,,,,77.75164883328446,None,u,0.11147100001107901,77.74990129994694,None,77.74990129994694,None,,0.2,001,2020_Oct_19_1328,temp,2020.1.3,None,
88,0,88,0,,,,,,,77.89839693328443,None,u,0.12730690004536882,77.89670849998947,None,77.89670849998947,None,,0.2,001,2020_Oct_19_1328,temp,2020.1.3,None,
89,0,89,0,,,,,,,78.05894583330567,None,u,0.12834659998770803,78.0580129000009,None,78.0580129000009,None,,0.2,001,2020_Oct_19_1328,temp,2020.1.3,None,
90,0,90,0,,,,,,,78.23229403328926,None,u,0.11544309998862445,78.23259979998693,None,78.23259979998693,None,,0.2,001,2020_Oct_19_1328,temp,2020.1.3,None,
91,0,91,0,,,,,,,78.39189693332494,None,u,0.11166180000873283,78.39011609996669,None,78.39011609996669,None,,0.2,001,2020_Oct_19_1328,temp,2020.1.3,None,
92,0,92,0,,,,,,,78.53847633332092,None,u,0.10674139996990561,78.53824609995354,None,78.53824609995354,None,,0.2,001,2020_Oct_19_1328,temp,2020.1.3,None,
93,0,93,0,,,,,,,78.69857563329472,None,u,0.11097310000332072,78.69815919996472,None,78.69815919996472,None,,0.2,001,2020_Oct_19_1328,temp,2020.1.3,None,
94,0,94,0,,,,,,,78.8454026333134,None,u,0.1110453000292182,78.85008989996277,None,78.85008989996277,None,,0.2,001,2020_Oct_19_1328,temp,2020.1.3,None,
95,0,95,0,,,,,,,78.9939454333003,None,u,0.13333360000979155,78.99539509997703,None,78.99539509997703,None,,0.2,001,2020_Oct_19_1328,temp,2020.1.3,None,
96,0,96,0,,,,,,,79.16762253328537,None,u,0.11746479995781556,79.16683019994525,None,79.16683019994525,None,,0.2,001,2020_Oct_19_1328,temp,2020.1.3,None,
97,0,97,0,,,,,,,79.32563213329607,None,u,0.10360589995980263,79.32396629999857,None,79.32396629999857,None,,0.2,001,2020_Oct_19_1328,temp,2020.1.3,None,
98,0,98,0,,,,,,,79.45985083329336,None,u,0.10669420001795515,79.45890019997023,None,79.45890019997023,None,,0.2,001,2020_Oct_19_1328,temp,2020.1.3,None,
99,0,99,0,,,,,,,79.60655463330525,None,u,0.12093400000594556,79.60477269999683,None,79.60477269999683,None,,0.2,001,2020_Oct_19_1328,temp,2020.1.3,None,
100,0,100,0,,,,,,,79.76649183332532,None,u,0.11519360000966117,79.76524089998566,None,79.76524089998566,None,,0.2,001,2020_Oct_19_1328,temp,2020.1.3,None,
101,0,101,0,,,,,,,79.91383603332409,None,u,0.10268539999378845,79.91407959995558,None,79.91407959995558,None,,0.2,001,2020_Oct_19_1328,temp,2020.1.3,None,
102,0,102,0,,,,,,,80.06011433329743,None,u,0.10027509997598827,80.06004429998575,None,80.06004429998575,None,,0.2,001,2020_Oct_19_1328,temp,2020.1.3,None,
103,0,103,0,,,,,,,80.19255633332844,None,u,0.12185840000165626,80.19375679997029,None,80.19375679997029,None,,0.2,001,2020_Oct_19_1328,temp,2020.1.3,None,
104,0,104,0,,,,,,,80.36741103331636,None,u,0.11451069999020547,80.36698679998517,None,80.36698679998517,None,,0.2,001,2020_Oct_19_1328,temp,2020.1.3,None,
105,0,105,0,,,,,,,80.52682933328518,None,u,0.1234493000083603,80.52547049999703,None,80.52547049999703,None,,0.2,001,2020_Oct_19_1328,temp,2020.1.3,None,
106,0,106,0,,,,,,,80.6858383332806,None,u,0.11077269999077544,80.68489809997845,None,80.68489809997845,None,,0.2,001,2020_Oct_19_1328,temp,2020.1.3,None,
107,0,107,0,,,,,,,80.8468957333321,None,u,0.09816980001050979,80.84536479995586,None,80.84536479995586,None,,0.2,001,2020_Oct_19_1328,temp,2020.1.3,None,
108,0,108,0,,,,,,,80.97996263329017,None,u,0.11504549998790026,80.97754749999149,None,80.97754749999149,None,,0.2,001,2020_Oct_19_1328,temp,2020.1.3,None,
109,0,109,0,,,,,,,81.12624493329398,None,u,0.2329928000108339,81.12648639996769,None,81.12648639996769,None,,0.2,001,2020_Oct_19_1328,temp,2020.1.3,None,
110,0,110,0,,,,,,,81.39305993333303,None,u,0.11354150000261143,81.39304289995926,None,81.39304289995926,None,,0.2,001,2020_Oct_19_1328,temp,2020.1.3,None,
111,0,111,0,,,,,,,81.54035693332165,None,u,0.09888190001947805,81.5394603999448,None,81.5394603999448,None,,0.2,001,2020_Oct_19_1328,temp,2020.1.3,None,
112,0,112,0,,,,,,,81.67456323328273,None,u,0.12109330005478114,81.67327899998054,None,81.67327899998054,None,,0.2,001,2020_Oct_19_1328,temp,2020.1.3,None,
113,0,113,0,,,,,,,81.84660093329924,None,u,0.08600100001785904,81.84541079995688,None,81.84541079995688,None,,0.2,001,2020_Oct_19_1328,temp,2020.1.3,None,
114,0,114,0,,,,,,,81.96699173330174,None,u,0.11323869996704161,81.96749650000129,None,81.96749650000129,None,,0.2,001,2020_Oct_19_1328,temp,2020.1.3,None,
115,0,115,0,,,,,,,82.1146288333189,None,u,0.10277270001824945,82.11354299995583,None,82.11354299995583,None,,0.2,001,2020_Oct_19_1328,temp,2020.1.3,None,
116,0,116,0,,,,,,,82.26088323328489,None,u,0.10256839997600764,82.25988069997402,None,82.25988069997402,None,,0.2,001,2020_Oct_19_1328,temp,2020.1.3,None,
117,0,117,0,,,,,,,82.39431023330738,None,u,0.1062977000256069,82.39450359996408,None,82.39450359996408,None,,0.2,001,2020_Oct_19_1328,temp,2020.1.3,None,
118,0,118,0,,,,,,,82.54034753330828,None,u,0.11109309998573735,82.5401550999959,None,82.5401550999959,None,,0.2,001,2020_Oct_19_1328,temp,2020.1.3,None,
119,0,119,0,,,,,,,82.68790533330369,None,u,0.10764180001569912,82.6883084999863,None,82.6883084999863,None,,0.2,001,2020_Oct_19_1328,temp,2020.1.3,None,
120,0,120,0,,,,,,,82.84797353333173,None,u,0.08018559997435659,82.85166819998994,None,82.85166819998994,None,,0.2,001,2020_Oct_19_1328,temp,2020.1.3,None,
121,0,121,0,,,,,,,82.96730113332936,None,u,0.10651729995151982,82.96770959999412,None,82.96770959999412,None,,0.2,001,2020_Oct_19_1328,temp,2020.1.3,None,
122,0,122,0,,,,,,,83.12833323330463,None,u,0.1034990000189282,83.1266974999453,None,83.1266974999453,None,,0.2,001,2020_Oct_19_1328,temp,2020.1.3,None,
123,0,123,0,,,,,,,83.27444853331738,None,u,0.10438600002089515,83.27341319998959,None,83.27341319998959,None,,0.2,001,2020_Oct_19_1328,temp,2020.1.3,None,
124,0,124,0,,,,,,,83.42034673330684,None,u,0.11526330001652241,83.41974199999822,None,83.41974199999822,None,,0.2,001,2020_Oct_19_1328,temp,2020.1.3,None,
125,0,125,0,,,,,,,83.5685714333163,None,u,0.10238769999705255,83.56727849994786,None,83.56727849994786,None,,0.2,001,2020_Oct_19_1328,temp,2020.1.3,None,
126,0,126,0,,,,,,,83.72816083330738,None,u,0.09269410005072132,83.72714419994736,None,83.72714419994736,None,,0.2,001,2020_Oct_19_1328,temp,2020.1.3,None,
127,0,127,0,,,,,,,83.86155943328825,None,u,0.0971552999690175,83.86619049997535,None,83.86619049997535,None,,0.2,001,2020_Oct_19_1328,temp,2020.1.3,None,
128,0,128,0,,,,,,,83.99572863331608,None,u,0.10937250003917143,83.9993787999847,None,83.9993787999847,None,,0.2,001,2020_Oct_19_1328,temp,2020.1.3,None,
129,0,129,0,,,,,,,84.14242623328076,None,u,0.12005719996523112,84.14568869996583,None,84.14568869996583,None,,0.2,001,2020_Oct_19_1328,temp,2020.1.3,None,
130,0,130,0,,,,,,,84.30169533327765,None,u,0.12283070001285523,84.30223299999489,None,84.30223299999489,None,,0.2,001,2020_Oct_19_1328,temp,2020.1.3,None,
131,0,131,0,,,,,,,84.46149263328019,None,u,0.10940210003172979,84.46045479999157,None,84.46045479999157,None,,0.2,001,2020_Oct_19_1328,temp,2020.1.3,None,
132,0,132,0,,,,,,,84.60811443330797,None,u,0.117764700029511,84.60712569998577,None,84.60712569998577,None,,0.2,001,2020_Oct_19_1328,temp,2020.1.3,None,
133,0,133,0,,,,,,,84.76772253332504,None,u,0.11569440003950149,84.76775129995076,None,84.76775129995076,None,,0.2,001,2020_Oct_19_1328,temp,2020.1.3,None,
134,0,134,0,,,,,,,84.92851623328946,None,u,0.11165810003876686,84.92767539998749,None,84.92767539998749,None,,0.2,001,2020_Oct_19_1328,temp,2020.1.3,None,
135,0,135,0,,,,,,,85.07462993329003,None,u,0.11593379999976605,85.07418179995148,None,85.07418179995148,None,,0.2,001,2020_Oct_19_1328,temp,2020.1.3,None,
136,0,136,0,,,,,,,85.23443703330898,None,u,0.11375769996084273,85.23582659999374,None,85.23582659999374,None,,0.2,001,2020_Oct_19_1328,temp,2020.1.3,None,
137,0,137,0,,,,,,,85.38254493330217,None,u,0.10371139994822443,85.38458379998337,None,85.38458379998337,None,,0.2,001,2020_Oct_19_1328,temp,2020.1.3,None,
138,0,138,0,,,,,,,85.5421805332958,None,u,0.09227049996843562,85.54229179996764,None,85.54229179996764,None,,0.2,001,2020_Oct_19_1328,temp,2020.1.3,None,
139,0,139,0,,,,,,,85.67427373329022,None,u,0.13079309999011457,85.67455759999575,None,85.67455759999575,None,,0.2,001,2020_Oct_19_1328,temp,2020.1.3,None,
140,0,140,0,,,,,,,85.84796393331683,None,u,0.1014634000021033,85.84632979996968,None,85.84632979996968,None,,0.2,001,2020_Oct_19_1328,temp,2020.1.3,None,
141,0,141,0,,,,,,,85.98148683331286,None,u,0.12150329997530207,85.98235969996313,None,85.98235969996313,None,,0.2,001,2020_Oct_19_1328,temp,2020.1.3,None,
142,0,142,0,,,,,,,86.14181563328796,None,u,0.11230039998190477,86.14170579996426,None,86.14170579996426,None,,0.2,001,2020_Oct_19_1328,temp,2020.1.3,None,
143,0,143,0,,,,,,,86.2879276333338,None,u,0.11552270001266152,86.28681979997782,None,86.28681979997782,None,,0.2,001,2020_Oct_19_1328,temp,2020.1.3,None,
144,0,144,0,,,,,,,86.4348603332842,None,u,0.11955309996847063,86.43685669999104,None,86.43685669999104,None,,0.2,001,2020_Oct_19_1328,temp,2020.1.3,None,
145,0,145,0,,,,,,,86.60828733328574,None,u,0.10253500001272187,86.60815649997676,None,86.60815649997676,None,,0.2,001,2020_Oct_19_1328,temp,2020.1.3,None,
146,0,146,0,,,,,,,86.75489373331268,None,u,0.10615649999817833,86.75734789995477,None,86.75734789995477,None,,0.2,001,2020_Oct_19_1328,temp,2020.1.3,None,
147,0,147,0,,,,,,,86.90176323330573,None,u,0.08486620004987344,86.90690839994932,None,86.90690839994932,None,,0.2,001,2020_Oct_19_1328,temp,2020.1.3,None,
148,0,148,0,,,,,,,87.03588423331578,None,u,0.10868639999534935,87.03832399996463,None,87.03832399996463,None,,0.2,001,2020_Oct_19_1328,temp,2020.1.3,None,
149,0,149,0,,,,,,,87.1828102333316,None,u,0.08971490000840276,87.1856412999914,None,87.1856412999914,None,,0.2,001,2020_Oct_19_1328,temp,2020.1.3,None,
150,0,150,0,,,,,,,87.31516743329897,None,u,0.10787700000219047,87.31719439994777,None,87.31719439994777,None,,0.2,001,2020_Oct_19_1328,temp,2020.1.3,None,
151,0,151,0,,,,,,,87.4757740332939,None,u,0.09707820002222434,87.48376769997412,None,87.48376769997412,None,,0.2,001,2020_Oct_19_1328,temp,2020.1.3,None,
152,0,152,0,,,,,,,87.62466243329303,None,u,0.08612489997176453,87.632237599988,None,87.632237599988,None,,0.2,001,2020_Oct_19_1328,temp,2020.1.3,None,
153,0,153,0,,,,,,,87.79138026661627,None,u,0.06982650002464652,87.78997599997092,None,87.78997599997092,None,,0.2,001,2020_Oct_19_1328,temp,2020.1.3,None,
154,0,154,0,,,,,,,87.91855369998375,None,u,0.07223619997967035,87.91832859994611,None,87.91832859994611,None,,0.2,001,2020_Oct_19_1328,temp,2020.1.3,None,
155,0,155,0,,,,,,,88.05202559999888,None,u,0.09211399999912828,88.04400429996895,None,88.04400429996895,None,,0.2,001,2020_Oct_19_1328,temp,2020.1.3,None,
156,0,156,0,,,,,,,88.1867158999783,None,u,0.08571210002992302,88.1803800999769,None,88.1803800999769,None,,0.2,001,2020_Oct_19_1328,temp,2020.1.3,None,
157,0,157,0,,,,,,,88.30408953328927,None,u,0.10050639999099076,88.311874899955,None,88.311874899955,None,,0.2,001,2020_Oct_19_1328,temp,2020.1.3,None,
158,0,158,0,,,,,,,88.45065943332932,None,u,0.10551219998160377,88.45766879996518,None,88.45766879996518,None,,0.2,001,2020_Oct_19_1328,temp,2020.1.3,None,
159,0,159,0,,,,,,,88.5957079333098,None,u,0.10107939998852089,88.60212219995447,None,88.60212219995447,None,,0.2,001,2020_Oct_19_1328,temp,2020.1.3,None,
160,0,160,0,,,,,,,88.75746873330402,None,u,0.08061430003726855,88.75997590000043,None,88.75997590000043,None,,0.2,001,2020_Oct_19_1328,temp,2020.1.3,None,
161,0,161,0,,,,,,,88.87641013332953,None,u,0.1073830000241287,88.88295329996618,None,88.88295329996618,None,,0.2,001,2020_Oct_19_1328,temp,2020.1.3,None,
162,0,162,0,,,,,,,89.02232933330427,None,u,0.11158860003342852,89.02569029998267,None,89.02569029998267,None,,0.2,001,2020_Oct_19_1328,temp,2020.1.3,None,
163,0,163,0,,,,,,,89.17076853331722,None,u,0.11441129999002442,89.17732319998322,None,89.17732319998322,None,,0.2,001,2020_Oct_19_1328,temp,2020.1.3,None,
164,0,164,0,,,,,,,89.32935903332739,None,u,0.12612470000749454,89.33079719997477,None,89.33079719997477,None,,0.2,001,2020_Oct_19_1328,temp,2020.1.3,None,
165,0,165,0,,,,,,,89.49023343332422,None,u,0.10482519998913631,89.49004069995135,None,89.49004069995135,None,,0.2,001,2020_Oct_19_1328,temp,2020.1.3,None,
166,0,166,0,,,,,,,89.63588933333133,None,u,0.11818300001323223,89.63555879995693,None,89.63555879995693,None,,0.2,001,2020_Oct_19_1328,temp,2020.1.3,None,
167,0,167,0,,,,,,,89.79616583331565,None,u,0.09783809998771176,89.79538539994974,None,89.79538539994974,None,,0.2,001,2020_Oct_19_1328,temp,2020.1.3,None,
168,0,168,0,,,,,,,89.93057243328852,None,u,0.12806269997963682,89.93046839995077,None,89.93046839995077,None,,0.2,001,2020_Oct_19_1328,temp,2020.1.3,None,
169,0,169,0,,,,,,,90.10262123333135,None,u,0.10082969994982705,90.10292099998333,None,90.10292099998333,None,,0.2,001,2020_Oct_19_1328,temp,2020.1.3,None,
170,0,170,0,,,,,,,90.23698603333517,None,u,0.1264210999943316,90.23719479999272,None,90.23719479999272,None,,0.2,001,2020_Oct_19_1328,temp,2020.1.3,None,
171,0,171,0,,,,,,,90.39721923328082,None,u,0.11103309999452904,90.39963639999041,None,90.39963639999041,None,,0.2,001,2020_Oct_19_1328,temp,2020.1.3,None,
172,0,172,0,,,,,,,90.5436074333343,None,u,0.1266751000075601,90.54562759998953,None,90.54562759998953,None,,0.2,001,2020_Oct_19_1328,temp,2020.1.3,None,
173,0,173,0,,,,,,,90.71643503331191,None,u,0.11748129996703938,90.71752619999461,None,90.71752619999461,None,,0.2,001,2020_Oct_19_1328,temp,2020.1.3,None,
174,0,174,0,,,,,,,90.87649393332734,None,u,0.11848320002900437,90.87836509995395,None,90.87836509995395,None,,0.2,001,2020_Oct_19_1328,temp,2020.1.3,None,
175,0,175,0,,,,,,,91.03665693332053,None,u,0.11682589998235926,91.03775169997243,None,91.03775169997243,None,,0.2,001,2020_Oct_19_1328,temp,2020.1.3,None,
176,0,176,0,,,,,,,91.196995133309,None,u,0.12828060000902042,91.19666239997605,None,91.19666239997605,None,,0.2,001,2020_Oct_19_1328,temp,2020.1.3,None,
177,0,177,0,,,,,,,91.36993853329525,None,u,0.10999020002782345,91.36962259997381,None,91.36962259997381,None,,0.2,001,2020_Oct_19_1328,temp,2020.1.3,None,
178,0,178,0,,,,,,,91.51661603328151,None,u,0.1202220999985002,91.52169079997111,None,91.52169079997111,None,,0.2,001,2020_Oct_19_1328,temp,2020.1.3,None,
179,0,179,0,,,,,,,91.67756633333241,None,u,0.12184360000537708,91.67795079998905,None,91.67795079998905,None,,0.2,001,2020_Oct_19_1328,temp,2020.1.3,None,
180,0,180,0,,,,,,,91.83805733332022,None,u,0.08626410004217178,91.83774319995428,None,91.83774319995428,None,,0.2,001,2020_Oct_19_1328,temp,2020.1.3,None,
181,0,181,0,,,,,,,91.95694583329217,None,u,0.12384580000070855,91.95894609997049,None,91.95894609997049,None,,0.2,001,2020_Oct_19_1328,temp,2020.1.3,None,
182,0,182,0,,,,,,,92.11760973331596,None,u,0.11246169998776168,92.11820079997415,None,92.11820079997415,None,,0.2,001,2020_Oct_19_1328,temp,2020.1.3,None,
183,0,183,0,,,,,,,92.2644893333277,None,u,0.13700900005642325,92.26507359999232,None,92.26507359999232,None,,0.2,001,2020_Oct_19_1328,temp,2020.1.3,None,
184,0,184,0,,,,,,,92.43787223328448,None,u,0.10427850001724437,92.437701799965,None,92.437701799965,None,,0.2,001,2020_Oct_19_1328,temp,2020.1.3,None,
185,0,185,0,,,,,,,92.58367303328899,None,u,0.2902311999932863,92.58343319996493,None,92.58343319996493,None,,0.2,001,2020_Oct_19_1328,temp,2020.1.3,None,
186,0,186,0,,,,,,,92.9172589333107,None,u,0.2640972000081092,92.9192664999864,None,92.9192664999864,None,,0.2,001,2020_Oct_19_1328,temp,2020.1.3,None,
187,0,187,0,,,,,,,93.22428463330337,None,u,0.12085579999256879,93.22323049994884,None,93.22323049994884,None,,0.2,001,2020_Oct_19_1328,temp,2020.1.3,None,
188,0,188,0,,,,,,,93.38409293333146,None,u,0.25969450001139194,93.38508219999494,None,93.38508219999494,None,,0.2,001,2020_Oct_19_1328,temp,2020.1.3,None,
189,0,189,0,,,,,,,93.67752733332648,None,u,0.24489360000006855,93.67751869995845,None,93.67751869995845,None,,0.2,001,2020_Oct_19_1328,temp,2020.1.3,None,
190,0,190,0,,,,,,,93.95767413330807,None,u,0.2948603000259027,93.95688779995544,None,93.95688779995544,None,,0.2,001,2020_Oct_19_1328,temp,2020.1.3,None,
191,0,191,0,,,,,,,94.29085633328262,None,u,0.15988150000339374,94.28919939999469,None,94.28919939999469,None,,0.2,001,2020_Oct_19_1328,temp,2020.1.3,None,
192,0,192,0,,,,,,,94.49118863332163,None,u,0.11926829995354638,94.49215479998384,None,94.49215479998384,None,,0.2,001,2020_Oct_19_1328,temp,2020.1.3,None,
193,0,193,0,,,,,,,94.65126503329569,None,u,0.10593079996760935,94.65210399997886,None,94.65210399997886,None,,0.2,001,2020_Oct_19_1328,temp,2020.1.3,None,
194,0,194,0,,,,,,,94.79787553329564,None,u,0.11329940002178773,94.79775579995476,None,94.79775579995476,None,,0.2,001,2020_Oct_19_1328,temp,2020.1.3,None,
195,0,195,0,,,,,,,94.94462433330094,None,u,0.12366410001413897,94.94609119999222,None,94.94609119999222,None,,0.2,001,2020_Oct_19_1328,temp,2020.1.3,None,
196,0,196,0,,,,,,,95.11798443331693,None,u,0.10644460003823042,95.12006960000144,None,95.12006960000144,None,,0.2,001,2020_Oct_19_1328,temp,2020.1.3,None,
197,0,197,0,,,,,,,95.26497583330686,None,u,0.12076979997800663,95.26390639995225,None,95.26390639995225,None,,0.2,001,2020_Oct_19_1328,temp,2020.1.3,None,
198,0,198,0,,,,,,,95.42566173332355,None,u,0.11312080000061542,95.42540489998646,None,95.42540489998646,None,,0.2,001,2020_Oct_19_1328,temp,2020.1.3,None,
199,0,199,0,,,,,,,95.5727899333074,None,u,0.11787129996810108,95.5766644999967,None,95.5766644999967,None,,0.2,001,2020_Oct_19_1328,temp,2020.1.3,None,
200,0,200,0,,,,,,,95.7326701333009,None,u,0.11660190002294257,95.73585479997564,None,95.73585479997564,None,,0.2,001,2020_Oct_19_1328,temp,2020.1.3,None,
201,0,201,0,,,,,,,95.8926887333005,None,u,0.12113909999607131,95.8933935999521,None,95.8933935999521,None,,0.2,001,2020_Oct_19_1328,temp,2020.1.3,None,
202,0,202,0,,,,,,,96.06508963328864,None,u,0.09074459999101236,96.06787329999497,None,96.06787329999497,None,,0.2,001,2020_Oct_19_1328,temp,2020.1.3,None,
203,0,203,0,,,,,,,96.1982132333292,None,u,0.10703140002442524,96.19877599994652,None,96.19877599994652,None,,0.2,001,2020_Oct_19_1328,temp,2020.1.3,None,
204,0,204,0,,,,,,,96.34506383329474,None,u,0.11545029998524114,96.34794259996852,None,96.34794259996852,None,,0.2,001,2020_Oct_19_1328,temp,2020.1.3,None,
205,0,205,0,,,,,,,96.5060957333267,None,u,0.09111550002126023,96.50959089997923,None,96.50959089997923,None,,0.2,001,2020_Oct_19_1328,temp,2020.1.3,None,
206,0,206,0,,,,,,,96.63950953330689,None,u,0.11363989999517798,96.64362959994469,None,96.64362959994469,None,,0.2,001,2020_Oct_19_1328,temp,2020.1.3,None,
207,0,207,0,,,,,,,96.79999423330494,None,u,0.10633870004676282,96.80573709995952,None,96.80573709995952,None,,0.2,001,2020_Oct_19_1328,temp,2020.1.3,None,
208,0,208,0,,,,,,,96.94615663332709,None,u,0.08466330001829192,96.94927949999692,None,96.94927949999692,None,,0.2,001,2020_Oct_19_1328,temp,2020.1.3,None,
209,0,209,0,,,,,,,97.06711053330994,None,u,0.09874370001489297,97.07291369995801,None,97.07291369995801,None,,0.2,001,2020_Oct_19_1328,temp,2020.1.3,None,
210,0,210,0,,,,,,,97.23331839999882,None,u,0.04326549998950213,97.23397409997415,None,97.23397409997415,None,,0.2,001,2020_Oct_19_1328,temp,2020.1.3,None,
211,0,211,0,,,,,,,97.33547599999001,None,u,0.06572920002508909,97.32760489999782,None,97.32760489999782,None,,0.2,001,2020_Oct_19_1328,temp,2020.1.3,None,
212,0,212,0,,,,,,,97.44342849998502,None,u,0.11843819997739047,97.44230029999744,None,97.44230029999744,None,,0.2,001,2020_Oct_19_1328,temp,2020.1.3,None,
213,0,213,0,,,,,,,97.59895963333159,None,u,0.13048709998838603,97.60671259998344,None,97.60671259998344,None,,0.2,001,2020_Oct_19_1328,temp,2020.1.3,None,
214,0,214,0,,,,,,,97.77259713330616,None,u,0.11053709994303063,97.77783579996321,None,97.77783579996321,None,,0.2,001,2020_Oct_19_1328,temp,2020.1.3,None,
215,0,215,0,,,,,,,97.94652823330446,None,u,0.024914100009482354,97.95076449995395,None,97.95076449995395,None,,0.2,001,2020_Oct_19_1328,temp,2020.1.3,None,
216,0,216,0,,,,,,,98.01222933329021,None,u,0.03925659996457398,98.01702969998587,None,98.01702969998587,None,,0.2,001,2020_Oct_19_1328,temp,2020.1.3,None,
217,0,217,0,,,,,,,98.09233493329569,None,u,0.04465820000041276,98.09533199999714,None,98.09533199999714,None,,0.2,001,2020_Oct_19_1328,temp,2020.1.3,None,
218,0,218,0,,,,,,,98.17445943330725,None,u,0.03649630001746118,98.18023459997494,None,98.18023459997494,None,,0.2,001,2020_Oct_19_1328,temp,2020.1.3,None,
219,0,219,0,,,,,,,98.25227393332946,None,u,0.042418900004122406,98.25567129999399,None,98.25567129999399,None,,0.2,001,2020_Oct_19_1328,temp,2020.1.3,None,
220,0,220,0,,,,,,,98.33283743332916,None,u,0.03968419996090233,98.34016179997707,None,98.34016179997707,None,,0.2,001,2020_Oct_19_1328,temp,2020.1.3,None,
221,0,221,0,,,,,,,98.41263003327961,None,u,0.1345858999993652,98.41493369999807,None,98.41493369999807,None,,0.2,001,2020_Oct_19_1328,temp,2020.1.3,None,
222,0,222,0,,,,,,,98.58667963330711,None,u,0.12249189999420196,98.59459789999528,None,98.59459789999528,None,,0.2,001,2020_Oct_19_1328,temp,2020.1.3,None,
223,0,223,0,,,,,,,98.75943823328319,None,u,0.03226359997643158,98.7641737999511,None,98.7641737999511,None,,0.2,001,2020_Oct_19_1328,temp,2020.1.3,None,
224,0,224,0,,,,,,,98.83966913331145,None,u,0.034707400016486645,98.84913409996079,None,98.84913409996079,None,,0.2,001,2020_Oct_19_1328,temp,2020.1.3,None,
225,0,225,0,,,,,,,98.91921043332744,None,u,0.03978900000220165,98.9226917999913,None,98.9226917999913,None,,0.2,001,2020_Oct_19_1328,temp,2020.1.3,None,
226,0,226,0,,,,,,,98.99922453333468,None,u,0.04204309999477118,99.004017499974,None,99.004017499974,None,,0.2,001,2020_Oct_19_1328,temp,2020.1.3,None,
227,0,227,0,,,,,,,99.0801693333274,None,u,0.05307510000420734,99.08333559997845,None,99.08333559997845,None,,0.2,001,2020_Oct_19_1328,temp,2020.1.3,None,
228,0,228,0,,,,,,,99.17300563329675,None,u,0.031220800010487437,99.1773700999911,None,99.1773700999911,None,,0.2,001,2020_Oct_19_1328,temp,2020.1.3,None,
229,0,229,0,,,,,,,99.25374153332862,None,u,0.031367799965664744,99.2570238999906,None,99.2570238999906,None,,0.2,001,2020_Oct_19_1328,temp,2020.1.3,None,
230,0,230,0,,,,,,,99.33269573329792,None,u,0.04717009997693822,99.335531299992,None,99.335531299992,None,,0.2,001,2020_Oct_19_1328,temp,2020.1.3,None,
231,0,231,0,,,,,,,99.44393779996317,None,u,0.09531099995365366,99.44224409997696,None,99.44224409997696,None,,0.2,001,2020_Oct_19_1328,temp,2020.1.3,None,
232,0,232,0,,,,,,,99.57302333328019,None,u,0.04503630002727732,99.58087509998586,None,99.58087509998586,None,,0.2,001,2020_Oct_19_1328,temp,2020.1.3,None,
233,0,233,0,,,,,,,99.6664641333123,None,u,0.03681299998424947,99.66822489997139,None,99.66822489997139,None,,0.2,001,2020_Oct_19_1328,temp,2020.1.3,None,
234,0,234,0,,,,,,,99.7463112333285,None,u,0.04879039997467771,99.75039939995622,None,99.75039939995622,None,,0.2,001,2020_Oct_19_1328,temp,2020.1.3,None,
235,0,235,0,,,,,,,99.83975813329064,None,u,0.046234099951107055,99.84185799997067,None,99.84185799997067,None,,0.2,001,2020_Oct_19_1328,temp,2020.1.3,None,
236,0,236,0,,,,,,,99.93328763329967,None,u,0.03002319997176528,99.93746889999602,None,99.93746889999602,None,,0.2,001,2020_Oct_19_1328,temp,2020.1.3,None,
237,0,237,0,,,,,,,99.99992903328578,None,u,0.0502437999821268,100.00446649995865,None,100.00446649995865,None,,0.2,001,2020_Oct_19_1328,temp,2020.1.3,None,
238,0,238,0,,,,,,,100.09495353332798,None,u,0.035357599961571395,100.10011489997851,None,100.10011489997851,None,,0.2,001,2020_Oct_19_1328,temp,2020.1.3,None,
239,0,239,0,,,,,,,100.17313263333247,None,u,0.0551467000041157,100.17613239999628,None,100.17613239999628,None,,0.2,001,2020_Oct_19_1328,temp,2020.1.3,None,
240,0,240,0,,,,,,,100.26677263330978,None,u,0.10233279998647049,100.27246379997814,None,100.27246379997814,None,,0.2,001,2020_Oct_19_1328,temp,2020.1.3,None,
241,0,241,0,,,,,,,100.42644473329031,None,u,0.09850130003178492,100.43374419998145,None,100.43374419998145,None,,0.2,001,2020_Oct_19_1328,temp,2020.1.3,None,
242,0,242,0,,,,,,,100.57351133332898,None,u,0.1393965999595821,100.5780104000005,None,100.5780104000005,None,,0.2,001,2020_Oct_19_1328,temp,2020.1.3,None,
243,0,243,0,,,,,,,100.76242503332517,None,u,0.016606700024567544,100.76933779998217,None,100.76933779998217,None,,0.2,001,2020_Oct_19_1328,temp,2020.1.3,None,
244,0,244,0,,,,,,,100.82587923331496,None,u,0.09575839998433366,100.82916099997237,None,100.82916099997237,None,,0.2,001,2020_Oct_19_1328,temp,2020.1.3,None,
245,0,245,0,,,,,,,100.96115203330604,None,u,0.1105593999964185,100.96596229996067,None,100.96596229996067,None,,0.2,001,2020_Oct_19_1328,temp,2020.1.3,None,
246,0,246,0,,,,,,,101.12098543329242,None,u,0.09338219999335706,101.12520819995552,None,101.12520819995552,None,,0.2,001,2020_Oct_19_1328,temp,2020.1.3,None,
247,0,247,0,,,,,,,101.25485073333451,None,u,0.11836849997052923,101.2604206999531,None,101.2604206999531,None,,0.2,001,2020_Oct_19_1328,temp,2020.1.3,None,
248,0,248,0,,,,,,,101.42871803331266,None,u,0.08310999994864687,101.43395629996667,None,101.43395629996667,None,,0.2,001,2020_Oct_19_1328,temp,2020.1.3,None,
249,0,249,0,,,,,,,101.56226743327764,None,u,0.10758730000816286,101.56574559997534,None,101.56574559997534,None,,0.2,001,2020_Oct_19_1328,temp,2020.1.3,None,
250,0,250,0,,,,,,,101.708036033328,None,u,0.6410071999998763,101.71266979997745,None,101.71266979997745,None,,0.2,001,2020_Oct_19_1328,temp,2020.1.3,None,
251,0,251,0,,,,,,,102.3872045333342,None,u,0.09560970001621172,102.3869978999719,None,102.3869978999719,None,,0.2,001,2020_Oct_19_1328,temp,2020.1.3,None,
252,0,252,0,,,,,,,102.52070603328369,None,u,0.10551840002881363,102.5229241999914,None,102.5229241999914,None,,0.2,001,2020_Oct_19_1328,temp,2020.1.3,None,
253,0,253,0,,,,,,,102.66741763329676,None,u,0.2260664000059478,102.67081759998109,None,102.67081759998109,None,,0.2,001,2020_Oct_19_1328,temp,2020.1.3,None,
254,0,254,0,,,,,,,102.93404903333479,None,u,0.13203939999220893,102.93717079999624,None,102.93717079999624,None,,0.2,001,2020_Oct_19_1328,temp,2020.1.3,None,
255,0,255,0,,,,,,,103.10915113328568,None,u,0.06889489997411147,103.11267009994481,None,103.11267009994481,None,,0.2,001,2020_Oct_19_1328,temp,2020.1.3,None,
256,0,256,0,,,,,,,103.21437463328087,None,u,0.10351210000226274,103.22157860000152,None,103.22157860000152,None,,0.2,001,2020_Oct_19_1328,temp,2020.1.3,None,
257,0,257,0,,,,,,,103.37594743329876,None,u,0.060353800014127046,103.37939519999782,None,103.37939519999782,None,,0.2,001,2020_Oct_19_1328,temp,2020.1.3,None,
258,0,258,0,,,,,,,103.48165923328682,None,u,0.11223209998570383,103.48620549996849,None,103.48620549996849,None,,0.2,001,2020_Oct_19_1328,temp,2020.1.3,None,
259,0,259,0,,,,,,,103.64124833333383,None,u,0.09792369999922812,103.64794559997972,None,103.64794559997972,None,,0.2,001,2020_Oct_19_1328,temp,2020.1.3,None,
260,0,260,0,,,,,,,103.78856883332676,None,u,0.0985649999929592,103.79659929999616,None,103.79659929999616,None,,0.2,001,2020_Oct_19_1328,temp,2020.1.3,None,
261,0,261,0,,,,,,,103.93622693332921,None,u,0.10015190002741292,103.94309559999965,None,103.94309559999965,None,,0.2,001,2020_Oct_19_1328,temp,2020.1.3,None,
262,0,262,0,,,,,,,104.08325323329385,None,u,0.09025770000880584,104.0893782999483,None,104.0893782999483,None,,0.2,001,2020_Oct_19_1328,temp,2020.1.3,None,
263,0,263,0,,,,,,,104.21485103329954,None,u,0.10788649995811284,104.21965899999486,None,104.21965899999486,None,,0.2,001,2020_Oct_19_1328,temp,2020.1.3,None,
264,0,264,0,,,,,,,104.37488823332436,None,u,0.08545670000603423,104.37965929997154,None,104.37965929997154,None,,0.2,001,2020_Oct_19_1328,temp,2020.1.3,None,
265,0,265,0,,,,,,,104.50824923330995,None,u,0.10863879998214543,104.51571279997006,None,104.51571279997006,None,,0.2,001,2020_Oct_19_1328,temp,2020.1.3,None,
266,0,266,0,,,,,,,104.6699895333227,None,u,0.1039081999915652,104.67287009995198,None,104.67287009995198,None,,0.2,001,2020_Oct_19_1328,temp,2020.1.3,None,
267,0,267,0,,,,,,,104.81500903331519,None,u,0.08239549997961149,104.82309959997656,None,104.82309959997656,None,,0.2,001,2020_Oct_19_1328,temp,2020.1.3,None,
268,0,268,0,,,,,,,104.94823773328292,None,u,0.10115869995206594,104.95321909995982,None,104.95321909995982,None,,0.2,001,2020_Oct_19_1328,temp,2020.1.3,None,
269,0,269,0,,,,,,,105.11015463330162,None,u,0.09288979996927083,105.11432969995076,None,105.11432969995076,None,,0.2,001,2020_Oct_19_1328,temp,2020.1.3,None,
270,0,270,0,,,,,,,105.25667073328125,None,u,0.09225809999043122,105.26182499999413,None,105.26182499999413,None,,0.2,001,2020_Oct_19_1328,temp,2020.1.3,None,
271,0,271,0,,,,,,,105.38893863332535,None,u,0.10765950003406033,105.39505649998318,None,105.39505649998318,None,,0.2,001,2020_Oct_19_1328,temp,2020.1.3,None,
272,0,272,0,,,,,,,105.53712733329351,None,u,0.10115570004563779,105.54254789999686,None,105.54254789999686,None,,0.2,001,2020_Oct_19_1328,temp,2020.1.3,None,
273,0,273,0,,,,,,,105.68365103333102,None,u,0.0922666999977082,105.68968229996972,None,105.68968229996972,None,,0.2,001,2020_Oct_19_1328,temp,2020.1.3,None,
274,0,274,0,,,,,,,105.8323950999882,None,u,0.09737359994323924,105.82738859998062,None,105.82738859998062,None,,0.2,001,2020_Oct_19_1328,temp,2020.1.3,None,
275,0,275,0,,,,,,,105.96194393328236,None,u,0.10311189998174086,105.97021539998241,None,105.97021539998241,None,,0.2,001,2020_Oct_19_1328,temp,2020.1.3,None,
276,0,276,0,,,,,,,106.12222873332988,None,u,0.08595859998604283,106.12899009999819,None,106.12899009999819,None,,0.2,001,2020_Oct_19_1328,temp,2020.1.3,None,
277,0,277,0,,,,,,,106.25548913330616,None,u,0.10391599999275059,106.25950389995705,None,106.25950389995705,None,,0.2,001,2020_Oct_19_1328,temp,2020.1.3,None,
278,0,278,0,,,,,,,106.40195263329272,None,u,0.10884020000230521,106.40869929996552,None,106.40869929996552,None,,0.2,001,2020_Oct_19_1328,temp,2020.1.3,None,
279,0,279,0,,,,,,,106.56367143331639,None,u,0.09763199998997152,106.56599659996573,None,106.56599659996573,None,,0.2,001,2020_Oct_19_1328,temp,2020.1.3,None,
280,0,280,0,,,,,,,106.69691873330933,None,u,0.1093249999685213,106.70365839998703,None,106.70365839998703,None,,0.2,001,2020_Oct_19_1328,temp,2020.1.3,None,
281,0,281,0,,,,,,,106.85734183330399,None,u,0.09772760001942515,106.8629875999759,None,106.8629875999759,None,,0.2,001,2020_Oct_19_1328,temp,2020.1.3,None,
282,0,282,0,,,,,,,107.00431153330331,None,u,0.09912899998016655,107.00712989998283,None,107.00712989998283,None,,0.2,001,2020_Oct_19_1328,temp,2020.1.3,None,
283,0,283,0,,,,,,,107.15134303330754,None,u,0.09743989998241886,107.15359099995112,None,107.15359099995112,None,,0.2,001,2020_Oct_19_1328,temp,2020.1.3,None,
284,0,284,0,,,,,,,107.28241203330302,None,u,0.10044220002600923,107.28886889998103,None,107.28886889998103,None,,0.2,001,2020_Oct_19_1328,temp,2020.1.3,None,
285,0,285,0,,,,,,,107.43149533333101,None,u,0.10452469997107983,107.43717289995402,None,107.43717289995402,None,,0.2,001,2020_Oct_19_1328,temp,2020.1.3,None,
286,0,286,0,,,,,,,107.59106003330865,None,u,0.11089860001811758,107.59350959997391,None,107.59350959997391,None,,0.2,001,2020_Oct_19_1328,temp,2020.1.3,None,
287,0,287,0,,,,,,,107.73780543328806,None,u,0.11918459995649755,107.74138989998028,None,107.74138989998028,None,,0.2,001,2020_Oct_19_1328,temp,2020.1.3,None,
288,0,288,0,,,,,,,107.89675843332273,None,u,0.10175810003420338,107.89991049998207,None,107.89991049998207,None,,0.2,001,2020_Oct_19_1328,temp,2020.1.3,None,
289,0,289,0,,,,,,,108.04274973332261,None,u,0.11902420001570135,108.04527219996089,None,108.04527219996089,None,,0.2,001,2020_Oct_19_1328,temp,2020.1.3,None,
290,0,290,0,,,,,,,108.20447743329763,None,u,0.11271010001655668,108.2052335999906,None,108.2052335999906,None,,0.2,001,2020_Oct_19_1328,temp,2020.1.3,None,
291,0,291,0,,,,,,,108.35049653333456,None,u,0.11220079998020083,108.35235949995695,None,108.35235949995695,None,,0.2,001,2020_Oct_19_1328,temp,2020.1.3,None,
292,0,292,0,,,,,,,108.4972188333127,None,u,0.11568440002156422,108.50093899999047,None,108.50093899999047,None,,0.2,001,2020_Oct_19_1328,temp,2020.1.3,None,
293,0,293,0,,,,,,,108.67062733328979,None,u,0.10597959998995066,108.67180859996006,None,108.67180859996006,None,,0.2,001,2020_Oct_19_1328,temp,2020.1.3,None,
294,0,294,0,,,,,,,108.81628073327786,None,u,0.11357500002486631,108.81791939999675,None,108.81791939999675,None,,0.2,001,2020_Oct_19_1328,temp,2020.1.3,None,
295,0,295,0,,,,,,,108.96400753327956,None,u,0.12371389998588711,108.96599859994603,None,108.96599859994603,None,,0.2,001,2020_Oct_19_1328,temp,2020.1.3,None,
296,0,296,0,,,,,,,109.13652843330831,None,u,0.11555379995843396,109.13818399998127,None,109.13818399998127,None,,0.2,001,2020_Oct_19_1328,temp,2020.1.3,None,
297,0,297,0,,,,,,,109.29655453330682,None,u,0.10331169998971745,109.29841489996761,None,109.29841489996761,None,,0.2,001,2020_Oct_19_1328,temp,2020.1.3,None,
298,0,298,0,,,,,,,109.44323453331211,None,u,0.10992140002781525,109.44545759999892,None,109.44545759999892,None,,0.2,001,2020_Oct_19_1328,temp,2020.1.3,None,
299,0,299,0,,,,,,,109.60327243328405,None,u,0.09175930003402755,109.60514619998867,None,109.60514619998867,None,,0.2,001,2020_Oct_19_1328,temp,2020.1.3,None,
300,0,300,0,,,,,,,109.73657583329671,None,u,0.10216299997409806,109.73878069996135,None,109.73878069996135,None,,0.2,001,2020_Oct_19_1328,temp,2020.1.3,None,
301,0,301,0,,,,,,,109.88342683332351,None,u,0.09476569999242201,109.88475449994439,None,109.88475449994439,None,,0.2,001,2020_Oct_19_1328,temp,2020.1.3,None,
302,0,302,0,,,,,,,110.01758133329761,None,u,0.1151516999816522,110.02044179994846,None,110.02044179994846,None,,0.2,001,2020_Oct_19_1328,temp,2020.1.3,None,
303,0,303,0,,,,,,,110.17687133327902,None,u,0.11812659999122843,110.17974859999958,None,110.17974859999958,None,,0.2,001,2020_Oct_19_1328,temp,2020.1.3,None,
304,0,304,0,,,,,,,110.35021433328123,None,u,0.0985602000146173,110.3527533999877,None,110.3527533999877,None,,0.2,001,2020_Oct_19_1328,temp,2020.1.3,None,
305,0,305,0,,,,,,,110.48370833329002,None,u,0.1068424999830313,110.48549359996105,None,110.48549359996105,None,,0.2,001,2020_Oct_19_1328,temp,2020.1.3,None,
306,0,306,0,,,,,,,110.64375123330004,None,u,0.09245469997404143,110.64939889998641,None,110.64939889998641,None,,0.2,001,2020_Oct_19_1328,temp,2020.1.3,None,
307,0,307,0,,,,,,,110.79592729995493,None,u,0.08922109997365624,110.79245079995599,None,110.79245079995599,None,,0.2,001,2020_Oct_19_1328,temp,2020.1.3,None,
308,0,308,0,,,,,,,110.92394813331387,None,u,0.13315790001070127,110.93341579998378,None,110.93341579998378,None,,0.2,001,2020_Oct_19_1328,temp,2020.1.3,None,
309,0,309,0,,,,,,,111.09895393328819,None,u,0.5389259000075981,111.10610109998379,None,111.10610109998379,None,,0.2,001,2020_Oct_19_1328,temp,2020.1.3,None,
310,0,310,0,,,,,,,111.6839724333336,None,u,0.12124820001190528,111.68383209995227,None,111.68383209995227,None,,0.2,001,2020_Oct_19_1328,temp,2020.1.3,None,
311,0,311,0,,,,,,,111.84423153330184,None,u,0.11801770003512502,111.84440629999153,None,111.84440629999153,None,,0.2,001,2020_Oct_19_1328,temp,2020.1.3,None,
312,0,312,0,,,,,,,112.01754763333204,None,u,0.09265999996569008,112.01707249996252,None,112.01707249996252,None,,0.2,001,2020_Oct_19_1328,temp,2020.1.3,None,
313,0,313,0,,,,,,,112.15076613328031,None,u,0.11214480001945049,112.15025819995208,None,112.15025819995208,None,,0.2,001,2020_Oct_19_1328,temp,2020.1.3,None,
314,0,314,0,,,,,,,112.29748523329229,None,u,0.11729209998156875,112.29926539998269,None,112.29926539998269,None,,0.2,001,2020_Oct_19_1328,temp,2020.1.3,None,
315,0,315,0,,,,,,,112.45776443329717,None,u,0.11417999997502193,112.45840709999902,None,112.45840709999902,None,,0.2,001,2020_Oct_19_1328,temp,2020.1.3,None,
316,0,316,0,,,,,,,112.60451253329714,None,u,0.12730350001947954,112.60603959998116,None,112.60603959998116,None,,0.2,001,2020_Oct_19_1328,temp,2020.1.3,None,
317,0,317,0,,,,,,,112.77776813333233,None,u,0.11199710000073537,112.77782229997683,None,112.77782229997683,None,,0.2,001,2020_Oct_19_1328,temp,2020.1.3,None,
318,0,318,0,,,,,,,112.92465063330795,None,u,0.10189380001975223,112.9265956999734,None,112.9265956999734,None,,0.2,001,2020_Oct_19_1328,temp,2020.1.3,None,
319,0,319,0,,,,,,,113.07120023330984,None,u,0.14564870001049712,113.07210989994928,None,113.07210989994928,None,,0.2,001,2020_Oct_19_1328,temp,2020.1.3,None,
320,0,320,0,,,,,,,113.25783363328858,None,u,0.3803693000227213,113.25828189996537,None,113.25828189996537,None,,0.2,001,2020_Oct_19_1328,temp,2020.1.3,None,
321,0,321,0,,,,,,,113.67139583332076,None,u,0.1399111999780871,113.67110599996522,None,113.67110599996522,None,,0.2,001,2020_Oct_19_1328,temp,2020.1.3,None,
322,0,322,0,,,,,,,113.84471943329166,None,u,0.10959280002862215,113.84362839994719,None,113.84362839994719,None,,0.2,001,2020_Oct_19_1328,temp,2020.1.3,None,
323,0,323,0,,,,,,,113.99148393330009,None,u,0.13026509998599067,113.99071619997267,None,113.99071619997267,None,,0.2,001,2020_Oct_19_1328,temp,2020.1.3,None,
324,0,324,0,,,,,,,114.16499903333218,None,u,0.1100696999928914,114.16474839998409,None,114.16474839998409,None,,0.2,001,2020_Oct_19_1328,temp,2020.1.3,None,
325,0,325,0,,,,,,,114.3118150333253,None,u,0.1276136999949813,114.31194029998733,None,114.31194029998733,None,,0.2,001,2020_Oct_19_1328,temp,2020.1.3,None,
326,0,326,0,,,,,,,114.47179713327981,None,u,0.17593639995902777,114.47280679998221,None,114.47280679998221,None,,0.2,001,2020_Oct_19_1328,temp,2020.1.3,None,
327,0,327,0,,,,,,,114.6985221332948,None,u,0.16902249999111518,114.69813739997335,None,114.69813739997335,None,,0.2,001,2020_Oct_19_1328,temp,2020.1.3,None,
328,0,328,0,,,,,,,114.89991143329146,None,u,0.35508150001987815,114.90075279999292,None,114.90075279999292,None,,0.2,001,2020_Oct_19_1328,temp,2020.1.3,None,
329,0,329,0,,,,,,,115.31216333329988,None,u,0.22429959999863058,115.30953299999237,None,115.30953299999237,None,,0.2,001,2020_Oct_19_1328,temp,2020.1.3,None,
330,0,330,0,,,,,,,115.57888013328969,None,u,0.19473330001346767,115.57714709994616,None,115.57714709994616,None,,0.2,001,2020_Oct_19_1328,temp,2020.1.3,None,
331,0,331,0,,,,,,,115.80556613329875,None,u,0.31747379997977987,115.80510959995445,None,115.80510959995445,None,,0.2,001,2020_Oct_19_1328,temp,2020.1.3,None,
332,0,332,0,,,,,,,116.17885563331268,None,u,0.3627904999884777,116.18048260000069,None,116.18048260000069,None,,0.2,001,2020_Oct_19_1328,temp,2020.1.3,None,
333,0,333,0,,,,,,,116.57905463327964,None,u,0.12547909998102114,116.57856529997662,None,116.57856529997662,None,,0.2,001,2020_Oct_19_1328,temp,2020.1.3,None,
334,0,334,0,,,,,,,116.73928063328688,None,u,0.2831278000376187,116.73696179996477,None,116.73696179996477,None,,0.2,001,2020_Oct_19_1328,temp,2020.1.3,None,
335,0,335,0,,,,,,,117.05940933328432,None,u,0.10858480003662407,117.05721459997585,None,117.05721459997585,None,,0.2,001,2020_Oct_19_1328,temp,2020.1.3,None,
336,0,336,0,,,,,,,117.20600903331845,None,u,0.14749980001943186,117.20534039998893,None,117.20534039998893,None,,0.2,001,2020_Oct_19_1328,temp,2020.1.3,None,
337,0,337,0,,,,,,,117.39283813333216,None,u,0.11294090002775192,117.39039649994811,None,117.39039649994811,None,,0.2,001,2020_Oct_19_1328,temp,2020.1.3,None,
338,0,338,0,,,,,,,117.5393229333063,None,u,0.1356849999865517,117.54101549996994,None,117.54101549996994,None,,0.2,001,2020_Oct_19_1328,temp,2020.1.3,None,
339,0,339,0,,,,,,,117.72620683332983,None,u,0.5563417000230402,117.73041209997609,None,117.73041209997609,None,,0.2,001,2020_Oct_19_1328,temp,2020.1.3,None,
340,0,340,0,,,,,,,118.34337779997149,None,u,0.10436009999830276,118.34191479999572,None,118.34191479999572,None,,0.2,001,2020_Oct_19_1328,temp,2020.1.3,None,
341,0,341,0,,,,,,,118.5054454999743,None,u,0.0842553999973461,118.5135931999539,None,118.5135931999539,None,,0.2,001,2020_Oct_19_1328,temp,2020.1.3,None,
342,0,342,0,,,,,,,118.6521595999482,None,u,0.08112719998462126,118.6603494999581,None,118.6603494999581,None,,0.2,001,2020_Oct_19_1328,temp,2020.1.3,None,
343,0,343,0,,,,,,,118.8002943999716,None,u,0.13768069999059662,118.80884269997478,None,118.80884269997478,None,,0.2,001,2020_Oct_19_1328,temp,2020.1.3,None,
344,0,344,0,,,,,,,119.01252219995949,None,u,0.10074019996682182,119.02274029998807,None,119.02274029998807,None,,0.2,001,2020_Oct_19_1328,temp,2020.1.3,None,
345,0,345,0,,,,,,,119.18369969994528,None,u,0.08548219996737316,119.18656389997341,None,119.18656389997341,None,,0.2,001,2020_Oct_19_1328,temp,2020.1.3,None,
346,0,346,0,,,,,,,119.32038739999989,None,u,0.10750610003015026,119.32131959998515,None,119.32131959998515,None,,0.2,001,2020_Oct_19_1328,temp,2020.1.3,None,
347,0,347,0,,,,,,,119.47885189998196,None,u,0.09393520001322031,119.47941509995144,None,119.47941509995144,None,,0.2,001,2020_Oct_19_1328,temp,2020.1.3,None,
348,0,348,0,,,,,,,119.62449009997071,None,u,0.09357029997045174,119.62539109995123,None,119.62539109995123,None,,0.2,001,2020_Oct_19_1328,temp,2020.1.3,None,
349,0,349,0,,,,,,,119.75382323331044,None,u,0.11601249995874241,119.76297129999148,None,119.76297129999148,None,,0.2,001,2020_Oct_19_1328,temp,2020.1.3,None,
350,0,350,0,,,,,,,119.92705273332152,None,u,0.09225789998890832,119.93510039994726,None,119.93510039994726,None,,0.2,001,2020_Oct_19_1328,temp,2020.1.3,None,
351,0,351,0,,,,,,,120.06047393329985,None,u,0.10734889999730512,120.06842909997795,None,120.06842909997795,None,,0.2,001,2020_Oct_19_1328,temp,2020.1.3,None,
352,0,352,0,,,,,,,120.22217243328535,None,u,0.09928859997307882,120.22584929998266,None,120.22584929998266,None,,0.2,001,2020_Oct_19_1328,temp,2020.1.3,None,
353,0,353,0,,,,,,,120.3689185333283,None,u,0.10209160001249984,120.37388489994919,None,120.37388489994919,None,,0.2,001,2020_Oct_19_1328,temp,2020.1.3,None,
354,0,354,0,,,,,,,120.51442013332465,None,u,0.09920639998745173,120.52182719996199,None,120.52182719996199,None,,0.2,001,2020_Oct_19_1328,temp,2020.1.3,None,
355,0,355,0,,,,,,,120.67597313330819,None,u,0.11782849999144673,120.68272879999131,None,120.68272879999131,None,,0.2,001,2020_Oct_19_1328,temp,2020.1.3,None,
356,0,356,0,,,,,,,120.83417023329142,None,u,0.1189260000246577,120.84096509998199,None,120.84096509998199,None,,0.2,001,2020_Oct_19_1328,temp,2020.1.3,None,
357,0,357,0,,,,,,,121.00830083329541,None,u,0.11173349997261539,121.01169459999073,None,121.01169459999073,None,,0.2,001,2020_Oct_19_1328,temp,2020.1.3,None,
358,0,358,0,,,,,,,121.16757533333342,None,u,0.09902530000545084,121.1724640999455,None,121.1724640999455,None,,0.2,001,2020_Oct_19_1328,temp,2020.1.3,None,
359,0,359,0,,,,,,,121.31556443329512,None,u,0.12500450003426522,121.32014049997088,None,121.32014049997088,None,,0.2,001,2020_Oct_19_1328,temp,2020.1.3,None,
360,0,360,0,,,,,,,121.48841273331394,None,u,0.09553429996594787,121.4931928999722,None,121.4931928999722,None,,0.2,001,2020_Oct_19_1328,temp,2020.1.3,None,
361,0,361,0,,,,,,,121.62174823327999,None,u,0.13213940005516633,121.62467209994793,None,121.62467209994793,None,,0.2,001,2020_Oct_19_1328,temp,2020.1.3,None,
362,0,362,0,,,,,,,121.80783263332754,None,u,0.10243940004147589,121.80974529997911,None,121.80974529997911,None,,0.2,001,2020_Oct_19_1328,temp,2020.1.3,None,
363,0,363,0,,,,,,,121.95440663328239,None,u,0.12903650000225753,121.9547691999469,None,121.9547691999469,None,,0.2,001,2020_Oct_19_1328,temp,2020.1.3,None,
364,0,364,0,,,,,,,122.14119833330236,None,u,0.10159500001464039,122.14172959997086,None,122.14172959997086,None,,0.2,001,2020_Oct_19_1328,temp,2020.1.3,None,
365,0,365,0,,,,,,,122.28798903333566,None,u,0.11071620002621785,122.29013449995546,None,122.29013449995546,None,,0.2,001,2020_Oct_19_1328,temp,2020.1.3,None,
366,0,366,0,,,,,,,122.43461903330947,None,u,0.13286220002919436,122.4356893999502,None,122.4356893999502,None,,0.2,001,2020_Oct_19_1328,temp,2020.1.3,None,
367,0,367,0,,,,,,,122.62171493331746,None,u,0.09834219998447224,122.62378609995358,None,122.62378609995358,None,,0.2,001,2020_Oct_19_1328,temp,2020.1.3,None,
368,0,368,0,,,,,,,122.75526983332432,None,u,0.1308662000228651,122.76000089995796,None,122.76000089995796,None,,0.2,001,2020_Oct_19_1328,temp,2020.1.3,None,
369,0,369,0,,,,,,,122.92887763330558,None,u,0.11643799999728799,122.93003940000199,None,122.93003940000199,None,,0.2,001,2020_Oct_19_1328,temp,2020.1.3,None,
370,0,370,0,,,,,,,123.08907653328109,None,u,0.118278999987524,123.09117039997363,None,123.09117039997363,None,,0.2,001,2020_Oct_19_1328,temp,2020.1.3,None,
371,0,371,0,,,,,,,123.24879463332084,None,u,0.14481140003772452,123.25170269998489,None,123.25170269998489,None,,0.2,001,2020_Oct_19_1328,temp,2020.1.3,None,
372,0,372,0,,,,,,,123.43489753333463,None,u,0.10505719995126128,123.436512699991,None,123.436512699991,None,,0.2,001,2020_Oct_19_1328,temp,2020.1.3,None,
373,0,373,0,,,,,,,123.58162853332081,None,u,0.1444707000046037,123.58247559994925,None,123.58247559994925,None,,0.2,001,2020_Oct_19_1328,temp,2020.1.3,None,
374,0,374,0,,,,,,,123.76856663329139,None,u,0.10666970000602305,123.77124459994957,None,123.77124459994957,None,,0.2,001,2020_Oct_19_1328,temp,2020.1.3,None,
375,0,375,0,,,,,,,123.9156279332897,None,u,0.13200580002740026,123.91825119999703,None,123.91825119999703,None,,0.2,001,2020_Oct_19_1328,temp,2020.1.3,None,
376,0,376,0,,,,,,,124.08924403333415,None,u,0.1187387999962084,124.09201769996434,None,124.09201769996434,None,,0.2,001,2020_Oct_19_1328,temp,2020.1.3,None,
377,0,377,0,,,,,,,124.24860743329239,None,u,0.10539350000908598,124.2510775999981,None,124.2510775999981,None,,0.2,001,2020_Oct_19_1328,temp,2020.1.3,None,
378,0,378,0,,,,,,,124.39539623331123,None,u,0.1015690000494942,124.39556169998832,None,124.39556169998832,None,,0.2,001,2020_Oct_19_1328,temp,2020.1.3,None,
379,0,379,0,,,,,,,124.52972383332283,None,u,0.11751770001137629,124.53258919995278,None,124.53258919995278,None,,0.2,001,2020_Oct_19_1328,temp,2020.1.3,None,
380,0,380,0,,,,,,,124.69035693328672,None,u,0.3212758000008762,124.69339899998158,None,124.69339899998158,None,,0.2,001,2020_Oct_19_1328,temp,2020.1.3,None,
381,0,381,0,,,,,,,125.04976793332801,None,u,0.13050919998204336,125.05039329995634,None,125.05039329995634,None,,0.2,001,2020_Oct_19_1328,temp,2020.1.3,None,
382,0,382,0,,,,,,,125.23568433331869,None,u,0.051456700020935386,125.23513119999552,None,125.23513119999552,None,,0.2,001,2020_Oct_19_1328,temp,2020.1.3,None,
383,0,383,0,,,,,,,125.32995373331553,None,u,0.01411529997130856,125.33106279995991,None,125.33106279995991,None,,0.2,001,2020_Oct_19_1328,temp,2020.1.3,None,
384,0,384,0,,,,,,,125.38142143330381,None,u,0.05075519997626543,125.38301289995434,None,125.38301289995434,None,,0.2,001,2020_Oct_19_1328,temp,2020.1.3,None,
385,0,385,0,,,,,,,125.47665983328673,None,u,0.036360800033435225,125.48050700000022,None,125.48050700000022,None,,0.2,001,2020_Oct_19_1328,temp,2020.1.3,None,
386,0,386,0,,,,,,,125.55604843330414,None,u,0.062177599989809096,125.55635559995426,None,125.55635559995426,None,,0.2,001,2020_Oct_19_1328,temp,2020.1.3,None,
387,0,387,0,,,,,,,125.66393933329576,None,u,0.027290099998936057,125.67224659997737,None,125.67224659997737,None,,0.2,001,2020_Oct_19_1328,temp,2020.1.3,None,
388,0,388,0,,,,,,,125.74226413330373,None,u,0.0317965000285767,125.74616559996502,None,125.74616559996502,None,,0.2,001,2020_Oct_19_1328,temp,2020.1.3,None,
389,0,389,0,,,,,,,125.81150983332967,None,u,0.05075510003371164,125.81720429996494,None,125.81720429996494,None,,0.2,001,2020_Oct_19_1328,temp,2020.1.3,None,
390,0,390,0,,,,,,,125.90262033331285,None,u,0.0413023000000976,125.9068623999483,None,125.9068623999483,None,,0.2,001,2020_Oct_19_1328,temp,2020.1.3,None,
391,0,391,0,,,,,,,125.98304573330873,None,u,0.04095460003009066,125.9887435999699,None,125.9887435999699,None,,0.2,001,2020_Oct_19_1328,temp,2020.1.3,None,
392,0,392,0,,,,,,,126.06352553331138,None,u,0.04798179998761043,126.06656239996664,None,126.06656239996664,None,,0.2,001,2020_Oct_19_1328,temp,2020.1.3,None,
393,0,393,0,,,,,,,126.15595883329709,None,u,0.050759100005961955,126.1616058999789,None,126.1616058999789,None,,0.2,001,2020_Oct_19_1328,temp,2020.1.3,None,
394,0,394,0,,,,,,,126.25023783330883,None,u,0.05206399998860434,126.25466409994988,None,126.25466409994988,None,,0.2,001,2020_Oct_19_1328,temp,2020.1.3,None,
395,0,395,0,,,,,,,126.34266163328041,None,u,0.03308709996053949,126.34782659995835,None,126.34782659995835,None,,0.2,001,2020_Oct_19_1328,temp,2020.1.3,None,
396,0,396,0,,,,,,,126.42324263329695,None,u,0.03639250004198402,126.4265682999976,None,126.4265682999976,None,,0.2,001,2020_Oct_19_1328,temp,2020.1.3,None,
397,0,397,0,,,,,,,126.50262473332307,None,u,0.02966319996630773,126.51058099995134,None,126.51058099995134,None,,0.2,001,2020_Oct_19_1328,temp,2020.1.3,None,
398,0,398,0,,,,,,,126.58348793333474,None,u,0.012890599959064275,126.58993079996435,None,126.58993079996435,None,,0.2,001,2020_Oct_19_1328,temp,2020.1.3,None,
399,0,399,0,,,,,,,126.63645923330526,None,u,0.11651249998249114,126.64311769994674,None,126.64311769994674,None,,0.2,001,2020_Oct_19_1328,temp,2020.1.3,None,
400,0,400,0,,,,,,,126.81285949995508,None,u,0.03403529996285215,126.80556159996195,None,126.80556159996195,None,,0.2,001,2020_Oct_19_1328,temp,2020.1.3,None,
401,0,401,0,,,,,,,126.8762451332955,None,u,0.033185699954628944,126.88380429998506,None,126.88380429998506,None,,0.2,001,2020_Oct_19_1328,temp,2020.1.3,None,
402,0,402,0,,,,,,,126.95683883329232,None,u,0.03340000001480803,126.96356749994447,None,126.96356749994447,None,,0.2,001,2020_Oct_19_1328,temp,2020.1.3,None,
403,0,403,0,,,,,,,127.03797743330554,None,u,0.08259469998301938,127.04201189999003,None,127.04201189999003,None,,0.2,001,2020_Oct_19_1328,temp,2020.1.3,None,
404,0,404,0,,,,,,,127.17119223328385,None,u,0.05614270002115518,127.17851689999225,None,127.17851689999225,None,,0.2,001,2020_Oct_19_1328,temp,2020.1.3,None,
405,0,405,0,,,,,,,127.27620923327825,None,u,0.0373867999878712,127.28078549995553,None,127.28078549995553,None,,0.2,001,2020_Oct_19_1328,temp,2020.1.3,None,
406,0,406,0,,,,,,,127.35647633329111,None,u,0.04747240000870079,127.36017629998969,None,127.36017629998969,None,,0.2,001,2020_Oct_19_1328,temp,2020.1.3,None,
407,0,407,0,,,,,,,127.46674939997028,None,u,0.023623600020073354,127.46095499995863,None,127.46095499995863,None,,0.2,001,2020_Oct_19_1328,temp,2020.1.3,None,
408,0,408,0,,,,,,,127.51653313329055,None,u,0.04797600000165403,127.52399159997003,None,127.52399159997003,None,,0.2,001,2020_Oct_19_1328,temp,2020.1.3,None,
409,0,409,0,,,,,,,127.60974833329286,None,u,0.0562696999986656,127.61432299995795,None,127.61432299995795,None,,0.2,001,2020_Oct_19_1328,temp,2020.1.3,None,
410,0,410,0,,,,,,,127.70313913329349,None,u,0.03537300002062693,127.71015739999712,None,127.71015739999712,None,,0.2,001,2020_Oct_19_1328,temp,2020.1.3,None,
411,0,411,0,,,,,,,127.78319643328044,None,u,0.04268099996261299,127.78849729994545,None,127.78849729994545,None,,0.2,001,2020_Oct_19_1328,temp,2020.1.3,None,
412,0,412,0,,,,,,,127.86530073331281,None,u,0.04101190000073984,127.87094329996035,None,127.87094329996035,None,,0.2,001,2020_Oct_19_1328,temp,2020.1.3,None,
413,0,413,0,,,,,,,127.94549253333437,None,u,0.0476316999993287,127.95281499996781,None,127.95281499996781,None,,0.2,001,2020_Oct_19_1328,temp,2020.1.3,None,
414,0,414,0,,,,,,,128.0367422333298,None,u,0.05401959997834638,128.0430499999784,None,128.0430499999784,None,,0.2,001,2020_Oct_19_1328,temp,2020.1.3,None,
415,0,415,0,,,,,,,128.13109073328866,None,u,0.044017900014296174,128.1347526999889,None,128.1347526999889,None,,0.2,001,2020_Oct_19_1328,temp,2020.1.3,None,
416,0,416,0,,,,,,,128.22354743327793,None,u,0.02902770001674071,128.2307680999511,None,128.2307680999511,None,,0.2,001,2020_Oct_19_1328,temp,2020.1.3,None,
417,0,417,0,,,,,,,128.30400143331696,None,u,0.037217099976260215,128.30810789996758,None,128.30810789996758,None,,0.2,001,2020_Oct_19_1328,temp,2020.1.3,None,
418,0,418,0,,,,,,,128.38342713332582,None,u,0.03223200002685189,128.39116999995895,None,128.39116999995895,None,,0.2,001,2020_Oct_19_1328,temp,2020.1.3,None,
419,0,419,0,,,,,,,128.46402143332722,None,u,0.03750849998323247,128.46908029995393,None,128.46908029995393,None,,0.2,001,2020_Oct_19_1328,temp,2020.1.3,None,
420,0,420,0,,,,,,,128.54348893330513,None,u,0.043023700010962784,128.54793959995732,None,128.54793959995732,None,,0.2,001,2020_Oct_19_1328,temp,2020.1.3,None,
421,0,421,0,,,,,,,128.6236248333085,None,u,0.07303919998230413,128.62831279996317,None,128.62831279996317,None,,0.2,001,2020_Oct_19_1328,temp,2020.1.3,None,
422,0,422,0,,,,,,,128.74350883329367,None,u,0.02912080002715811,128.7448551999987,None,128.7448551999987,None,,0.2,001,2020_Oct_19_1328,temp,2020.1.3,None,
423,0,423,0,,,,,,,128.81046023331197,None,u,0.042217399983201176,128.81685759994434,None,128.81685759994434,None,,0.2,001,2020_Oct_19_1328,temp,2020.1.3,None,
424,0,424,0,,,,,,,128.89129953331627,None,u,0.04120819998206571,128.8953655999503,None,128.8953655999503,None,,0.2,001,2020_Oct_19_1328,temp,2020.1.3,None,
425,0,425,0,,,,,,,128.97024993331485,None,u,0.048505600017961115,128.97428289998788,None,128.97428289998788,None,,0.2,001,2020_Oct_19_1328,temp,2020.1.3,None,
426,0,426,0,,,,,,,129.06403193332568,None,u,0.04373670002678409,129.0681052999571,None,129.0681052999571,None,,0.2,001,2020_Oct_19_1328,temp,2020.1.3,None,
427,0,427,0,,,,,,,129.14388033329357,None,u,0.04681980004534125,129.1477934999857,None,129.1477934999857,None,,0.2,001,2020_Oct_19_1328,temp,2020.1.3,None,
428,0,428,0,,,,,,,129.23711013329063,None,u,0.046391199983190745,129.24255779996747,None,129.24255779996747,None,,0.2,001,2020_Oct_19_1328,temp,2020.1.3,None,
429,0,429,0,,,,,,,129.34713129997255,None,u,0.0035752999829128385,129.34703720000107,None,129.34703720000107,None,,0.2,001,2020_Oct_19_1328,temp,2020.1.3,None,
430,0,430,0,,,,,,,129.41079379997683,None,u,0.02053189999423921,129.41545139998198,None,129.41545139998198,None,,0.2,001,2020_Oct_19_1328,temp,2020.1.3,None,
431,0,431,0,,,,,,,129.4953401999781,None,u,0.020044000004418194,129.49670179997338,None,129.49670179997338,None,,0.2,001,2020_Oct_19_1328,temp,2020.1.3,None,
432,0,432,0,,,,,,,129.57427199995146,None,u,0.03027809999184683,129.57896209997125,None,129.57896209997125,None,,0.2,001,2020_Oct_19_1328,temp,2020.1.3,None,
433,0,433,0,,,,,,,129.66647589999485,None,u,0.02561670000432059,129.67986699996982,None,129.67986699996982,None,,0.2,001,2020_Oct_19_1328,temp,2020.1.3,None,
434,0,434,0,,,,,,,129.76138729999076,None,u,0.03425769996829331,129.76797200000146,None,129.76797200000146,None,,0.2,001,2020_Oct_19_1328,temp,2020.1.3,None,
435,0,435,0,,,,,,,129.85398229998538,None,u,0.02190389996394515,129.86678589996882,None,129.86678589996882,None,,0.2,001,2020_Oct_19_1328,temp,2020.1.3,None,
436,0,436,0,,,,,,,129.9450745999464,None,u,0.016302799980621785,129.94292760000098,None,129.94292760000098,None,,0.2,001,2020_Oct_19_1328,temp,2020.1.3,None,
437,0,437,0,,,,,,,130.01292229997927,None,u,0.04320479999296367,130.00858819996938,None,130.00858819996938,None,,0.2,001,2020_Oct_19_1328,temp,2020.1.3,None,
438,0,438,0,,,,,,,130.10744429997868,None,u,0.17806559999007732,130.10391259996686,None,130.10391259996686,None,,0.2,001,2020_Oct_19_1328,temp,2020.1.3,None,
439,0,439,0,,,,,,,130.33186593332408,None,u,0.029353099991567433,130.3403932999936,None,130.3403932999936,None,,0.2,001,2020_Oct_19_1328,temp,2020.1.3,None,
440,0,440,0,,,,,,,130.4108677333066,None,u,0.046290599973872304,130.41756129998248,None,130.41756129998248,None,,0.2,001,2020_Oct_19_1328,temp,2020.1.3,None,
441,0,441,0,,,,,,,130.50427213329436,None,u,0.03506949997972697,130.5091883999994,None,130.5091883999994,None,,0.2,001,2020_Oct_19_1328,temp,2020.1.3,None,
442,0,442,0,,,,,,,130.58425513329763,None,u,0.0535082999849692,130.59188439999707,None,130.59188439999707,None,,0.2,001,2020_Oct_19_1328,temp,2020.1.3,None,
443,0,443,0,,,,,,,130.67909873330115,None,u,0.026171600038651377,130.68468549998943,None,130.68468549998943,None,,0.2,001,2020_Oct_19_1328,temp,2020.1.3,None,
444,0,444,0,,,,,,,130.74441213330334,None,u,0.029918900050688535,130.7528764999588,None,130.7528764999588,None,,0.2,001,2020_Oct_19_1328,temp,2020.1.3,None,
445,0,445,0,,,,,,,130.83692803327773,None,u,0.042336200014688075,130.8452686999808,None,130.8452686999808,None,,0.2,001,2020_Oct_19_1328,temp,2020.1.3,None,
446,0,446,0,,,,,,,130.93096183328504,None,u,0.006993899994995445,130.93893829995068,None,130.93893829995068,None,,0.2,001,2020_Oct_19_1328,temp,2020.1.3,None,
447,0,447,0,,,,,,,130.98547053332055,None,u,0.18309320003027096,130.99198609997984,None,130.99198609997984,None,,0.2,001,2020_Oct_19_1328,temp,2020.1.3,None,
448,0,448,0,,,,,,,131.212353233314,None,u,0.1324534000013955,131.21786029997747,None,131.21786029997747,None,,0.2,001,2020_Oct_19_1328,temp,2020.1.3,None,
449,0,449,0,,,,,,,131.3987647332911,None,u,0.13436160003766418,131.4016720999498,None,131.4016720999498,None,,0.2,001,2020_Oct_19_1328,temp,2020.1.3,None,
450,0,450,0,,,,,,,131.57129603328264,None,u,0.04979399999137968,131.57594939996488,None,131.57594939996488,None,,0.2,001,2020_Oct_19_1328,temp,2020.1.3,None,
451,0,451,0,,,,,,,131.6653338333204,None,u,0.03347249998478219,131.67325029999483,None,131.67325029999483,None,,0.2,001,2020_Oct_19_1328,temp,2020.1.3,None,
452,0,452,0,,,,,,,131.74464913330354,None,u,0.1083560999832116,131.7517781999777,None,131.7517781999777,None,,0.2,001,2020_Oct_19_1328,temp,2020.1.3,None,
453,0,453,0,,,,,,,131.9048924333261,None,u,0.02694280003197491,131.91099559998838,None,131.91099559998838,None,,0.2,001,2020_Oct_19_1328,temp,2020.1.3,None,
454,0,454,0,,,,,,,131.97224163328843,None,u,0.037952300044707954,131.98014079994755,None,131.98014079994755,None,,0.2,001,2020_Oct_19_1328,temp,2020.1.3,None,
455,0,455,0,,,,,,,132.0514852333077,None,u,0.043749599950388074,132.05695399997057,None,132.05695399997057,None,,0.2,001,2020_Oct_19_1328,temp,2020.1.3,None,
456,0,456,0,,,,,,,132.14658803330582,None,u,0.04255640000337735,132.15347709995694,None,132.15347709995694,None,,0.2,001,2020_Oct_19_1328,temp,2020.1.3,None,
457,0,457,0,,,,,,,132.23833933327893,None,u,0.13958560000173748,132.24338629998965,None,132.24338629998965,None,,0.2,001,2020_Oct_19_1328,temp,2020.1.3,None,
458,0,458,0,,,,,,,132.42512033333384,None,u,0.34017079998739064,132.43006230000174,None,132.43006230000174,None,,0.2,001,2020_Oct_19_1328,temp,2020.1.3,None,
459,0,459,0,,,,,,,132.81180363329673,None,u,0.18901159998495132,132.81423999997787,None,132.81423999997787,None,,0.2,001,2020_Oct_19_1328,temp,2020.1.3,None,
460,0,460,0,,,,,,,133.03858773329608,None,u,0.12857909995364025,133.04005999997025,None,133.04005999997025,None,,0.2,001,2020_Oct_19_1328,temp,2020.1.3,None,
461,0,461,0,,,,,,,133.2121604333011,None,u,0.11288859997875988,133.214688499982,None,133.214688499982,None,,0.2,001,2020_Oct_19_1328,temp,2020.1.3,None,
462,0,462,0,,,,,,,133.3719009332786,None,u,0.04813560005277395,133.3729653999908,None,133.3729653999908,None,,0.2,001,2020_Oct_19_1328,temp,2020.1.3,None,
463,0,463,0,,,,,,,133.45274113328975,None,u,0.11242960003437474,133.45529499999247,None,133.45529499999247,None,,0.2,001,2020_Oct_19_1328,temp,2020.1.3,None,
464,0,464,0,,,,,,,133.61291143328032,None,u,0.12950889999046922,133.61538509995444,None,133.61538509995444,None,,0.2,001,2020_Oct_19_1328,temp,2020.1.3,None,
465,0,465,0,,,,,,,133.78547073331043,None,u,0.11586260003969073,133.78736219997518,None,133.78736219997518,None,,0.2,001,2020_Oct_19_1328,temp,2020.1.3,None,
466,0,466,0,,,,,,,133.94566883327985,None,u,0.04455950000556186,133.94762979994994,None,133.94762979994994,None,,0.2,001,2020_Oct_19_1328,temp,2020.1.3,None,
467,0,467,0,,,,,,,134.02736793331184,None,u,0.14012060000095516,134.03313699999126,None,134.03313699999126,None,,0.2,001,2020_Oct_19_1328,temp,2020.1.3,None,
468,0,468,0,,,,,,,134.2131653333277,None,u,0.10565350000979379,134.2170608000015,None,134.2170608000015,None,,0.2,001,2020_Oct_19_1328,temp,2020.1.3,None,
469,0,469,0,,,,,,,134.3599651333139,None,u,0.045632700028363615,134.36353179998696,None,134.36353179998696,None,,0.2,001,2020_Oct_19_1328,temp,2020.1.3,None,
470,0,470,0,,,,,,,134.4524284332952,None,u,0.04347719997167587,134.45715529995505,None,134.45715529995505,None,,0.2,001,2020_Oct_19_1328,temp,2020.1.3,None,
471,0,471,0,,,,,,,134.54570743331766,None,u,0.06309529999271035,134.54934619995765,None,134.54934619995765,None,,0.2,001,2020_Oct_19_1328,temp,2020.1.3,None,
472,0,472,0,,,,,,,134.65243123332817,None,u,0.0407013000221923,134.65641639998648,None,134.65641639998648,None,,0.2,001,2020_Oct_19_1328,temp,2020.1.3,None,
473,0,473,0,,,,,,,134.73253653333137,None,u,0.04668939998373389,134.7356305999565,None,134.7356305999565,None,,0.2,001,2020_Oct_19_1328,temp,2020.1.3,None,
474,0,474,0,,,,,,,134.82582833333487,None,u,0.049518999992869794,134.83068939996883,None,134.83068939996883,None,,0.2,001,2020_Oct_19_1328,temp,2020.1.3,None,
475,0,475,0,,,,,,,134.9191055332854,None,u,0.037879300012718886,134.9216454999987,None,134.9216454999987,None,,0.2,001,2020_Oct_19_1328,temp,2020.1.3,None,
476,0,476,0,,,,,,,134.9992258332864,None,u,0.0991799000184983,135.0063506999868,None,135.0063506999868,None,,0.2,001,2020_Oct_19_1328,temp,2020.1.3,None,
477,0,477,0,,,,,,,135.16129533330292,None,u,0.10344749997602776,135.17083609994734,None,135.17083609994734,None,,0.2,001,2020_Oct_19_1328,temp,2020.1.3,None,
478,0,478,0,,,,,,,135.3077616333108,None,u,0.12159469997277483,135.31367309996858,None,135.31367309996858,None,,0.2,001,2020_Oct_19_1328,temp,2020.1.3,None,
479,0,479,0,,,,,,,135.4934477332941,None,u,0.21319829998537898,135.49630579998484,None,135.49630579998484,None,,0.2,001,2020_Oct_19_1328,temp,2020.1.3,None,
480,0,480,0,,,,,,,135.761202833332,None,u,0.097646199981682,135.76296879997244,None,135.76296879997244,None,,0.2,001,2020_Oct_19_1328,temp,2020.1.3,None,
481,0,481,0,,,,,,,135.89362833329557,None,u,0.40625250001903623,135.89412489999086,None,135.89412489999086,None,,0.2,001,2020_Oct_19_1328,temp,2020.1.3,None,
482,0,482,0,,,,,,,136.33303493331965,None,u,0.11032600002363324,136.3374688999611,None,136.3374688999611,None,,0.2,001,2020_Oct_19_1328,temp,2020.1.3,None,
483,0,483,0,,,,,,,136.4948070332835,None,u,0.2350519999745302,136.49682919995394,None,136.49682919995394,None,,0.2,001,2020_Oct_19_1328,temp,2020.1.3,None,
484,0,484,0,,,,,,,136.77315433329983,None,u,0.09567389998119324,136.77455689996714,None,136.77455689996714,None,,0.2,001,2020_Oct_19_1328,temp,2020.1.3,None,
485,0,485,0,,,,,,,136.90666713333536,None,u,0.10073689999990165,136.90966059995117,None,136.90966059995117,None,,0.2,001,2020_Oct_19_1328,temp,2020.1.3,None,
486,0,486,0,,,,,,,137.0426828332789,None,u,0.11095249996287748,137.04902639996726,None,137.04902639996726,None,,0.2,001,2020_Oct_19_1328,temp,2020.1.3,None,
487,0,487,0,,,,,,,137.20154423331456,None,u,0.13016489997971803,137.2027037999942,None,137.2027037999942,None,,0.2,001,2020_Oct_19_1328,temp,2020.1.3,None,
