trials.thisTrialN,trials.stepSize,trials.intensity,key_resp_2.keys,key_resp_2.rt,key_resp_2.started,key_resp_2.stopped,text.started,text.stopped,sound_1.started,sound_1.stopped,trials.response,key_resp.rt,key_resp.started,key_resp.stopped,question_text.started,question_text.stopped,level_text.started,level_text.stopped,participant,input,session,date,expName,psychopyVersion,frameRate,
,,,space,1.1051540999906138,14.712152699998114,None,,,,,,,,,,,,,,0.2,001,2020_Oct_19_1527,temp,2020.1.3,None,
0,0.8,0.1,,,,,14.712152699998114,None,15.858355466629535,None,0,4.049126000027172,15.856230299978051,None,15.856230299978051,None,15.856230299978051,None,,0.2,001,2020_Oct_19_1527,temp,2020.1.3,None,
1,0.8,0.6309573444801934,,,,,,,19.92648106662479,None,0,1.4936180000077002,19.93169219995616,None,19.93169219995616,None,19.93169219995616,None,,0.2,001,2020_Oct_19_1527,temp,2020.1.3,None,
2,0.8,1,,,,,,,21.446880966661652,None,1,2.0625915999989957,21.443912099988665,None,21.443912099988665,None,21.443912099988665,None,,0.2,001,2020_Oct_19_1527,temp,2020.1.3,None,
3,0.4,0.15848931924611132,,,,,,,23.52780316665691,None,0,1.2280038999742828,23.52580649999436,None,23.52580649999436,None,23.52580649999436,None,,0.2,001,2020_Oct_19_1527,temp,2020.1.3,None,
4,0.4,0.39810717055349715,,,,,,,24.781484766634335,None,0,1.006906499969773,24.778482099995017,None,24.778482099995017,None,24.778482099995017,None,,0.2,001,2020_Oct_19_1527,temp,2020.1.3,None,
5,0.4,0.9999999999999998,,,,,,,25.80830256664582,None,0,0.9505349000100978,25.805378899967764,None,25.805378899967764,None,25.805378899967764,None,,0.2,001,2020_Oct_19_1527,temp,2020.1.3,None,
6,0.4,1,,,,,,,26.795574366642782,None,1,1.0649829999892972,26.792299499968067,None,26.792299499968067,None,26.792299499968067,None,,0.2,001,2020_Oct_19_1527,temp,2020.1.3,None,
7,0.1,0.39810717055349726,,,,,,,27.875985266644662,None,0,1.7796633999678306,27.872623300005216,None,27.872623300005216,None,27.872623300005216,None,,0.2,001,2020_Oct_19_1527,temp,2020.1.3,None,
8,0.1,0.5011872336272724,,,,,,,29.676521566642137,None,0,1.4172463999711908,29.673317399981897,None,29.673317399981897,None,29.673317399981897,None,,0.2,001,2020_Oct_19_1527,temp,2020.1.3,None,
9,0.1,0.6309573444801934,,,,,,,31.117126966655874,None,0,1.9347712000017054,31.113995699968655,None,31.113995699968655,None,31.113995699968655,None,,0.2,001,2020_Oct_19_1527,temp,2020.1.3,None,
10,0.1,0.7943282347242817,,,,,,,33.064624666647674,None,0,5.020532099995762,33.07466589997057,None,33.07466589997057,None,33.07466589997057,None,,0.2,001,2020_Oct_19_1527,temp,2020.1.3,None,
11,0.05,1,,,,,,,38.132899866617905,None,1,0.46669390000170097,38.12969359999988,None,38.12969359999988,None,38.12969359999988,None,,0.2,001,2020_Oct_19_1527,temp,2020.1.3,None,
12,0.05,0.8912509381337456,,,,,,,38.613148366628835,None,1,0.32305010000709444,38.61113779997686,None,38.61113779997686,None,38.61113779997686,None,,0.2,001,2020_Oct_19_1527,temp,2020.1.3,None,
13,0.05,0.7943282347242816,,,,,,,38.959968166662534,None,1,0.239731399982702,38.95745779998833,None,38.95745779998833,None,38.95745779998833,None,,0.2,001,2020_Oct_19_1527,temp,2020.1.3,None,
14,0.05,0.707945784384138,,,,,,,39.21362676663945,None,1,0.12547140003880486,39.21060339995893,None,39.21060339995893,None,39.21060339995893,None,,0.2,001,2020_Oct_19_1527,temp,2020.1.3,None,
15,0.05,0.6309573444801934,,,,,,,39.360097566623395,None,1,0.124615500040818,39.358963799953926,None,39.358963799953926,None,39.358963799953926,None,,0.2,001,2020_Oct_19_1527,temp,2020.1.3,None,
16,0.05,0.5623413251903492,,,,,,,39.50662996666894,None,1,0.12658539996482432,39.516839599993546,None,39.516839599993546,None,39.516839599993546,None,,0.2,001,2020_Oct_19_1527,temp,2020.1.3,None,
17,0.05,0.5011872336272725,,,,,,,39.66696066665851,None,1,0.11639450001530349,39.66383689997019,None,39.66383689997019,None,39.66383689997019,None,,0.2,001,2020_Oct_19_1527,temp,2020.1.3,None,
18,0.05,0.4466835921509633,,,,,,,39.80034336663472,None,1,0.13511209998978302,39.79729919997044,None,39.79729919997044,None,39.79729919997044,None,,0.2,001,2020_Oct_19_1527,temp,2020.1.3,None,
19,0.05,0.3981071705534975,,,,,,,39.947393366663405,None,0,0.3144173999899067,39.944788499968126,None,39.944788499968126,None,39.944788499968126,None,,0.2,001,2020_Oct_19_1527,temp,2020.1.3,None,
20,0.05,0.4466835921509633,,,,,,,40.28058246663228,None,0,0.13906409998890013,40.277888499957044,None,40.277888499957044,None,40.277888499957044,None,,0.2,001,2020_Oct_19_1527,temp,2020.1.3,None,
21,0.05,0.5011872336272725,,,,,,,40.440734866661174,None,0,0.09391929995035753,40.450587899948005,None,40.450587899948005,None,40.450587899948005,None,,0.2,001,2020_Oct_19_1527,temp,2020.1.3,None,
22,0.05,0.5623413251903492,,,,,,,40.56043236662323,None,0,0.11959969997406006,40.557445999991614,None,40.557445999991614,None,40.557445999991614,None,,0.2,001,2020_Oct_19_1527,temp,2020.1.3,None,
23,0.05,0.6309573444801934,,,,,,,40.69392656663355,None,0,0.14034939999692142,40.69129160000011,None,40.69129160000011,None,40.69129160000011,None,,0.2,001,2020_Oct_19_1527,temp,2020.1.3,None,
24,0.05,0.707945784384138,,,,,,,40.853900066638985,None,0,0.13175650004995987,40.86381159996381,None,40.86381159996381,None,40.86381159996381,None,,0.2,001,2020_Oct_19_1527,temp,2020.1.3,None,
25,0.05,0.7943282347242816,,,,,,,41.01431016665107,None,0,0.11689850001130253,41.01079639996169,None,41.01079639996169,None,41.01079639996169,None,,0.2,001,2020_Oct_19_1527,temp,2020.1.3,None,
26,0.05,0.8912509381337456,,,,,,,41.147355266617765,None,0,0.18178500002250075,41.14467399998102,None,41.14467399998102,None,41.14467399998102,None,,0.2,001,2020_Oct_19_1527,temp,2020.1.3,None,
27,0.05,1.0,,,,,,,41.34754826664381,None,1,0.500814100028947,41.344367999990936,None,41.344367999990936,None,41.344367999990936,None,,0.2,001,2020_Oct_19_1527,temp,2020.1.3,None,
28,0.05,0.8912509381337456,,,,,,,41.880811366663934,None,1,0.1647145999595523,41.877772799984086,None,41.877772799984086,None,41.877772799984086,None,,0.2,001,2020_Oct_19_1527,temp,2020.1.3,None,
29,0.05,0.7943282347242816,,,,,,,42.08113706665269,None,1,0.13057640002807602,42.07882219995372,None,42.07882219995372,None,42.07882219995372,None,,0.2,001,2020_Oct_19_1527,temp,2020.1.3,None,
30,0.05,0.707945784384138,,,,,,,42.22826366662436,None,1,0.1460792000289075,42.22488890000386,None,42.22488890000386,None,42.22488890000386,None,,0.2,001,2020_Oct_19_1527,temp,2020.1.3,None,
31,0.05,0.6309573444801934,,,,,,,42.38828206662244,None,1,0.4988191000302322,42.39805749995867,None,42.39805749995867,None,42.39805749995867,None,,0.2,001,2020_Oct_19_1527,temp,2020.1.3,None,
32,0.05,0.5623413251903492,,,,,,,42.92152316664966,None,1,1.1911024000146426,42.93143409996992,None,42.93143409996992,None,42.93143409996992,None,,0.2,001,2020_Oct_19_1527,temp,2020.1.3,None,
33,0.05,0.5011872336272725,,,,,,,44.16221376666023,None,0,0.3867978000198491,44.159697700000834,None,44.159697700000834,None,44.159697700000834,None,,0.2,001,2020_Oct_19_1527,temp,2020.1.3,None,
34,0.05,0.5623413251903492,,,,,,,44.56225876661871,None,0,0.15296869998564944,44.559932599950116,None,44.559932599950116,None,44.559932599950116,None,,0.2,001,2020_Oct_19_1527,temp,2020.1.3,None,
35,0.05,0.6309573444801934,,,,,,,44.735367166638994,None,0,0.531901000009384,44.74545309995301,None,44.74545309995301,None,44.74545309995301,None,,0.2,001,2020_Oct_19_1527,temp,2020.1.3,None,
36,0.05,0.707945784384138,,,,,,,45.29605186666983,None,0,0.3815016999724321,45.30471860000398,None,45.30471860000398,None,45.30471860000398,None,,0.2,001,2020_Oct_19_1527,temp,2020.1.3,None,
