trials.thisRepN,trials.thisTrialN,trials.thisN,trials.thisIndex,text.started,text.stopped,key_resp_2.keys,key_resp_2.rt,key_resp_2.started,key_resp_2.stopped,sound_1.started,sound_1.stopped,key_resp.keys,key_resp.rt,key_resp.started,key_resp.stopped,participant,input,session,date,expName,psychopyVersion,frameRate,
,,,,14.477005099997768,14.477005099997768,space,0.7172045000006619,14.477005099997768,None,,,,,,,,0.2,001,2020_Oct_16_1653,temp,2020.1.3,None,
0,0,0,0,,,,,,,15.219011866666067,None,d,1.037041199997475,15.223988599998847,None,,0.2,001,2020_Oct_16_1653,temp,2020.1.3,None,
1,0,1,0,,,,,,,16.30301613333043,None,d,0.18546739999874262,16.294107499998063,None,,0.2,001,2020_Oct_16_1653,temp,2020.1.3,None,
2,0,2,0,,,,,,,16.516638333331258,None,d,0.14114519999930053,16.507087999998475,None,,0.2,001,2020_Oct_16_1653,temp,2020.1.3,None,
3,0,3,0,,,,,,,16.690513133330143,None,d,0.1595010999990336,16.679419999996753,None,,0.2,001,2020_Oct_16_1653,temp,2020.1.3,None,
4,0,4,0,,,,,,,16.876568233332847,None,d,0.10022770000068704,16.86572719999822,None,,0.2,001,2020_Oct_16_1653,temp,2020.1.3,None,
5,0,5,0,,,,,,,17.009792533332558,None,d,0.12846260000151233,16.999570799998764,None,,0.2,001,2020_Oct_16_1653,temp,2020.1.3,None,
6,0,6,0,,,,,,,17.16993393333226,None,d,0.11825169999792706,17.160535199996957,None,,0.2,001,2020_Oct_16_1653,temp,2020.1.3,None,
7,0,7,0,,,,,,,17.317555233330978,None,d,0.09332419999918784,17.306860900000174,None,,0.2,001,2020_Oct_16_1653,temp,2020.1.3,None,
8,0,8,0,,,,,,,17.437744633331505,None,d,0.11277150000023539,17.428159299997787,None,,0.2,001,2020_Oct_16_1653,temp,2020.1.3,None,
9,0,9,0,,,,,,,17.582935633331118,None,d,0.11845349999930477,17.57292999999845,None,,0.2,001,2020_Oct_16_1653,temp,2020.1.3,None,
10,0,10,0,,,,,,,17.744715233330254,None,d,0.09357160000217846,17.734470199997304,None,,0.2,001,2020_Oct_16_1653,temp,2020.1.3,None,
11,0,11,0,,,,,,,17.878287833333644,None,d,0.09728469999754452,17.868635499999073,None,,0.2,001,2020_Oct_16_1653,temp,2020.1.3,None,
12,0,12,0,,,,,,,18.011255633330194,None,d,0.10151019999830169,18.000269799998932,None,,0.2,001,2020_Oct_16_1653,temp,2020.1.3,None,
13,0,13,0,,,,,,,18.144768333332223,None,d,0.11724319999848376,18.13405209999837,None,,0.2,001,2020_Oct_16_1653,temp,2020.1.3,None,
14,0,14,0,,,,,,,18.29131023333005,None,d,0.101633899997978,18.281190999998216,None,,0.2,001,2020_Oct_16_1653,temp,2020.1.3,None,
15,0,15,0,,,,,,,18.424923533330485,None,d,0.12621910000234493,18.414939799997228,None,,0.2,001,2020_Oct_16_1653,temp,2020.1.3,None,
16,0,16,0,,,,,,,18.583509033331694,None,d,0.10312079999857815,18.57359179999912,None,,0.2,001,2020_Oct_16_1653,temp,2020.1.3,None,
17,0,17,0,,,,,,,18.717535533331585,None,d,0.11412000000200351,18.707318799999484,None,,0.2,001,2020_Oct_16_1653,temp,2020.1.3,None,
18,0,18,0,,,,,,,18.863823533331498,None,d,0.09719820000100299,18.85286399999677,None,,0.2,001,2020_Oct_16_1653,temp,2020.1.3,None,
19,0,19,0,,,,,,,18.98386463333057,None,d,0.11211380000167992,18.973846799999592,None,,0.2,001,2020_Oct_16_1653,temp,2020.1.3,None,
20,0,20,0,,,,,,,19.130489233332383,None,d,0.11705829999846173,19.119825499998115,None,,0.2,001,2020_Oct_16_1653,temp,2020.1.3,None,
21,0,21,0,,,,,,,19.2905663333336,None,d,0.09167430000161403,19.28061819999857,None,,0.2,001,2020_Oct_16_1653,temp,2020.1.3,None,
22,0,22,0,,,,,,,19.410465133333247,None,d,0.11818540000240318,19.400061000000278,None,,0.2,001,2020_Oct_16_1653,temp,2020.1.3,None,
23,0,23,0,,,,,,,19.557638733331743,None,d,0.11630180000065593,19.546863399998983,None,,0.2,001,2020_Oct_16_1653,temp,2020.1.3,None,
24,0,24,0,,,,,,,19.70404603333057,None,d,0.11127209999904153,19.69410969999808,None,,0.2,001,2020_Oct_16_1653,temp,2020.1.3,None,
25,0,25,0,,,,,,,19.837337933332066,None,d,0.12386070000138716,19.82885339999848,None,,0.2,001,2020_Oct_16_1653,temp,2020.1.3,None,
26,0,26,0,,,,,,,19.98547753333017,None,d,0.10547280000173487,19.976205399998435,None,,0.2,001,2020_Oct_16_1653,temp,2020.1.3,None,
27,0,27,0,,,,,,,20.118361833331193,None,d,0.11730149999857531,20.108497199998965,None,,0.2,001,2020_Oct_16_1653,temp,2020.1.3,None,
28,0,28,0,,,,,,,20.265382033333054,None,d,0.11557209999955376,20.254680999998527,None,,0.2,001,2020_Oct_16_1653,temp,2020.1.3,None,
29,0,29,0,,,,,,,20.42455213333281,None,d,0.08914770000046701,20.414065899996785,None,,0.2,001,2020_Oct_16_1653,temp,2020.1.3,None,
30,0,30,0,,,,,,,20.557680033333355,None,d,0.09910049999962212,20.546990699996968,None,,0.2,001,2020_Oct_16_1653,temp,2020.1.3,None,
31,0,31,0,,,,,,,20.6743690666665,None,d,0.10268960000030347,20.67964479999864,None,,0.2,001,2020_Oct_16_1653,temp,2020.1.3,None,
32,0,32,0,,,,,,,20.83800463333003,None,d,0.0853465000000142,20.826167199997144,None,,0.2,001,2020_Oct_16_1653,temp,2020.1.3,None,
33,0,33,0,,,,,,,20.944784733332682,None,d,0.13291789999857428,20.933433099999093,None,,0.2,001,2020_Oct_16_1653,temp,2020.1.3,None,
34,0,34,0,,,,,,,21.104640533333196,None,d,0.11124810000183061,21.094242600000143,None,,0.2,001,2020_Oct_16_1653,temp,2020.1.3,None,
35,0,35,0,,,,,,,21.238042533332674,None,d,0.12146999999822583,21.228167799999937,None,,0.2,001,2020_Oct_16_1653,temp,2020.1.3,None,
36,0,36,0,,,,,,,21.384953633333254,None,d,0.08955620000051567,21.374815299997863,None,,0.2,001,2020_Oct_16_1653,temp,2020.1.3,None,
37,0,37,0,,,,,,,21.504785333331284,None,d,0.13099159999910626,21.49423459999889,None,,0.2,001,2020_Oct_16_1653,temp,2020.1.3,None,
38,0,38,0,,,,,,,21.664687433331466,None,d,0.11391139999977895,21.654158099998313,None,,0.2,001,2020_Oct_16_1653,temp,2020.1.3,None,
39,0,39,0,,,,,,,21.812544433331396,None,d,0.10965130000113277,21.801746999997704,None,,0.2,001,2020_Oct_16_1653,temp,2020.1.3,None,
40,0,40,0,,,,,,,21.94578753333238,None,d,0.1234245000014198,21.935931799998798,None,,0.2,001,2020_Oct_16_1653,temp,2020.1.3,None,
41,0,41,0,,,,,,,22.10640263333019,None,d,0.10435440000219387,22.09577939999872,None,,0.2,001,2020_Oct_16_1653,temp,2020.1.3,None,
42,0,42,0,,,,,,,22.239391233332327,None,d,0.11483519999819691,22.229738899997756,None,,0.2,001,2020_Oct_16_1653,temp,2020.1.3,None,
43,0,43,0,,,,,,,22.38509483333158,None,d,0.11787959999855957,22.3757220999978,None,,0.2,001,2020_Oct_16_1653,temp,2020.1.3,None,
44,0,44,0,,,,,,,22.531888433332398,None,d,0.126600799998414,22.521627599999192,None,,0.2,001,2020_Oct_16_1653,temp,2020.1.3,None,
45,0,45,0,,,,,,,22.70516493333028,None,d,0.10879940000086208,22.69381179999982,None,,0.2,001,2020_Oct_16_1653,temp,2020.1.3,None,
46,0,46,0,,,,,,,22.838558233332634,None,d,0.13242300000274554,22.82902439999816,None,,0.2,001,2020_Oct_16_1653,temp,2020.1.3,None,
47,0,47,0,,,,,,,22.999542233330914,None,d,0.11015339999721618,22.989418399996794,None,,0.2,001,2020_Oct_16_1653,temp,2020.1.3,None,
48,0,48,0,,,,,,,23.133524633333337,None,d,0.1618129999988014,23.123143199998594,None,,0.2,001,2020_Oct_16_1653,temp,2020.1.3,None,
49,0,49,0,,,,,,,23.318684733331366,None,d,0.1076878999992914,23.30734819999998,None,,0.2,001,2020_Oct_16_1653,temp,2020.1.3,None,
50,0,50,0,,,,,,,23.451953933330998,None,d,0.11587709999730578,23.441638699998293,None,,0.2,001,2020_Oct_16_1653,temp,2020.1.3,None,
51,0,51,0,,,,,,,23.59856073333188,None,d,0.11999959999957355,23.587778499997512,None,,0.2,001,2020_Oct_16_1653,temp,2020.1.3,None,
52,0,52,0,,,,,,,23.745574733330187,None,d,0.1331372000022384,23.737164799997117,None,,0.2,001,2020_Oct_16_1653,temp,2020.1.3,None,
53,0,53,0,,,,,,,23.91994253333226,None,d,0.10871559999941383,23.910712400000193,None,,0.2,001,2020_Oct_16_1653,temp,2020.1.3,None,
54,0,54,0,,,,,,,24.05380023333103,None,d,0.12608060000275145,24.044225499997992,None,,0.2,001,2020_Oct_16_1653,temp,2020.1.3,None,
55,0,55,0,,,,,,,24.21247653333242,None,d,0.1026553999981843,24.202006799998344,None,,0.2,001,2020_Oct_16_1653,temp,2020.1.3,None,
56,0,56,0,,,,,,,24.346200533331768,None,d,0.11527270000078715,24.334923399997933,None,,0.2,001,2020_Oct_16_1653,temp,2020.1.3,None,
57,0,57,0,,,,,,,24.492549133331096,None,d,0.12643609999940963,24.481339899997693,None,,0.2,001,2020_Oct_16_1653,temp,2020.1.3,None,
58,0,58,0,,,,,,,24.65259563333214,None,d,0.1328955999997561,24.641672699999617,None,,0.2,001,2020_Oct_16_1653,temp,2020.1.3,None,
59,0,59,0,,,,,,,24.812314233332046,None,d,0.12361939999755123,24.80337679999866,None,,0.2,001,2020_Oct_16_1653,temp,2020.1.3,None,
60,0,60,0,,,,,,,24.959504533330374,None,d,0.12648280000212253,24.948411599998508,None,,0.2,001,2020_Oct_16_1653,temp,2020.1.3,None,
61,0,61,0,,,,,,,25.11940113333233,None,d,0.11830469999767956,25.108493299998372,None,,0.2,001,2020_Oct_16_1653,temp,2020.1.3,None,
62,0,62,0,,,,,,,25.266047433332034,None,d,0.10401510000156122,25.25659900000028,None,,0.2,001,2020_Oct_16_1653,temp,2020.1.3,None,
63,0,63,0,,,,,,,25.399253033331235,None,d,0.11624600000141072,25.38787809999849,None,,0.2,001,2020_Oct_16_1653,temp,2020.1.3,None,
64,0,64,0,,,,,,,25.52939076666395,None,d,0.1167265000003681,25.534483399998862,None,,0.2,001,2020_Oct_16_1653,temp,2020.1.3,None,
65,0,65,0,,,,,,,25.692925333333307,None,d,0.12033800000062911,25.682079899997916,None,,0.2,001,2020_Oct_16_1653,temp,2020.1.3,None,
66,0,66,0,,,,,,,25.839644433330733,None,d,0.11135610000201268,25.82918349999818,None,,0.2,001,2020_Oct_16_1653,temp,2020.1.3,None,
67,0,67,0,,,,,,,25.973064833332074,None,d,0.12957239999741432,25.962091899997176,None,,0.2,001,2020_Oct_16_1653,temp,2020.1.3,None,
68,0,68,0,,,,,,,26.134245333331393,None,d,0.11206730000048992,26.12547319999794,None,,0.2,001,2020_Oct_16_1653,temp,2020.1.3,None,
69,0,69,0,,,,,,,26.279789333330456,None,d,0.10829279999961727,26.26967869999862,None,,0.2,001,2020_Oct_16_1653,temp,2020.1.3,None,
70,0,70,0,,,,,,,26.414733433332486,None,d,0.12703350000083447,26.40507179999986,None,,0.2,001,2020_Oct_16_1653,temp,2020.1.3,None,
71,0,71,0,,,,,,,26.57324283333267,None,d,0.13151960000323015,26.562682499999937,None,,0.2,001,2020_Oct_16_1653,temp,2020.1.3,None,
72,0,72,0,,,,,,,26.7332766333316,None,d,0.12537539999902947,26.722190699998464,None,,0.2,001,2020_Oct_16_1653,temp,2020.1.3,None,
73,0,73,0,,,,,,,26.880033133330045,None,d,0.13838580000083311,26.869032599999628,None,,0.2,001,2020_Oct_16_1653,temp,2020.1.3,None,
74,0,74,0,,,,,,,27.041282233331486,None,d,0.1167849000012211,27.031854299999395,None,,0.2,001,2020_Oct_16_1653,temp,2020.1.3,None,
75,0,75,0,,,,,,,27.20049233333023,None,d,0.11232980000204407,27.189820699997654,None,,0.2,001,2020_Oct_16_1653,temp,2020.1.3,None,
76,0,76,0,,,,,,,27.346783633333445,None,d,0.11471290000190493,27.336997999998857,None,,0.2,001,2020_Oct_16_1653,temp,2020.1.3,None,
77,0,77,0,,,,,,,27.493557333331893,None,d,0.12341790000209585,27.483504799998627,None,,0.2,001,2020_Oct_16_1653,temp,2020.1.3,None,
78,0,78,0,,,,,,,27.640407533330773,None,d,0.12864479999916512,27.63013399999909,None,,0.2,001,2020_Oct_16_1653,temp,2020.1.3,None,
79,0,79,0,,,,,,,27.800396833332826,None,d,0.13017750000290107,27.788950599999225,None,,0.2,001,2020_Oct_16_1653,temp,2020.1.3,None,
80,0,80,0,,,,,,,27.960144933331804,None,d,0.12639320000016596,27.949694199996884,None,,0.2,001,2020_Oct_16_1653,temp,2020.1.3,None,
81,0,81,0,,,,,,,28.133679433333356,None,d,0.11341279999760445,28.1229929000001,None,,0.2,001,2020_Oct_16_1653,temp,2020.1.3,None,
82,0,82,0,,,,,,,28.280559033330547,None,d,0.1192497000010917,28.269781399998465,None,,0.2,001,2020_Oct_16_1653,temp,2020.1.3,None,
83,0,83,0,,,,,,,28.427316833331616,None,d,0.13331819999802974,28.417158299998846,None,,0.2,001,2020_Oct_16_1653,temp,2020.1.3,None,
84,0,84,0,,,,,,,28.587158333332383,None,d,0.10708729999896605,28.577047399998264,None,,0.2,001,2020_Oct_16_1653,temp,2020.1.3,None,
85,0,85,0,,,,,,,28.721680633331317,None,d,0.12571110000135377,28.71077669999795,None,,0.2,001,2020_Oct_16_1653,temp,2020.1.3,None,
86,0,86,0,,,,,,,28.88180823333144,None,d,0.10443120000127237,28.87241619999986,None,,0.2,001,2020_Oct_16_1653,temp,2020.1.3,None,
87,0,87,0,,,,,,,29.015637333330716,None,d,0.10896349999893573,29.005062699998234,None,,0.2,001,2020_Oct_16_1653,temp,2020.1.3,None,
88,0,88,0,,,,,,,29.14767253333096,None,d,0.12124219999896013,29.13791879999917,None,,0.2,001,2020_Oct_16_1653,temp,2020.1.3,None,
89,0,89,0,,,,,,,29.29460333333239,None,d,0.21055630000046222,29.28455649999887,None,,0.2,001,2020_Oct_16_1653,temp,2020.1.3,None,
90,0,90,0,,,,,,,29.547783033333445,None,d,0.03880089999802294,29.537118799999007,None,,0.2,001,2020_Oct_16_1653,temp,2020.1.3,None,
91,0,91,0,,,,,,,29.61411303333128,None,d,0.058634900000470225,29.60455290000027,None,,0.2,001,2020_Oct_16_1653,temp,2020.1.3,None,
92,0,92,0,,,,,,,29.70761313333108,None,d,0.1043470000004163,29.69795030000023,None,,0.2,001,2020_Oct_16_1653,temp,2020.1.3,None,
93,0,93,0,,,,,,,29.84106383333031,None,d,0.0388913999995566,29.83135069999844,None,,0.2,001,2020_Oct_16_1653,temp,2020.1.3,None,
94,0,94,0,,,,,,,29.909334433330997,None,d,0.049547300000995165,29.899886699997296,None,,0.2,001,2020_Oct_16_1653,temp,2020.1.3,None,
95,0,95,0,,,,,,,29.98787683333333,None,d,0.05928059999860125,29.977371400000266,None,,0.2,001,2020_Oct_16_1653,temp,2020.1.3,None,
96,0,96,0,,,,,,,30.08232963333333,None,d,0.04744589999972959,30.070508799999516,None,,0.2,001,2020_Oct_16_1653,temp,2020.1.3,None,
97,0,97,0,,,,,,,30.16131923333208,None,d,0.12393059999885736,30.150787699996727,None,,0.2,001,2020_Oct_16_1653,temp,2020.1.3,None,
98,0,98,0,,,,,,,30.3085188333321,None,d,0.07091969999964931,30.298256299996865,None,,0.2,001,2020_Oct_16_1653,temp,2020.1.3,None,
99,0,99,0,,,,,,,30.414570333331113,None,d,0.046162400001776405,30.404010399997787,None,,0.2,001,2020_Oct_16_1653,temp,2020.1.3,None,
100,0,100,0,,,,,,,30.482762133332045,None,d,0.05871909999768832,30.474479399999836,None,,0.2,001,2020_Oct_16_1653,temp,2020.1.3,None,
101,0,101,0,,,,,,,30.57443793333053,None,d,0.06320939999932307,30.56339769999977,None,,0.2,001,2020_Oct_16_1653,temp,2020.1.3,None,
102,0,102,0,,,,,,,30.68140913333312,None,d,0.03789450000112993,30.670866299999034,None,,0.2,001,2020_Oct_16_1653,temp,2020.1.3,None,
103,0,103,0,,,,,,,30.74798513333056,None,d,0.0686199999981909,30.737614399997256,None,,0.2,001,2020_Oct_16_1653,temp,2020.1.3,None,
104,0,104,0,,,,,,,30.841839033332263,None,d,0.06745850000152132,30.83193669999673,None,,0.2,001,2020_Oct_16_1653,temp,2020.1.3,None,
105,0,105,0,,,,,,,30.93515033333145,None,d,0.06153439999980037,30.924556699999812,None,,0.2,001,2020_Oct_16_1653,temp,2020.1.3,None,
106,0,106,0,,,,,,,31.027892333332176,None,d,0.1318505000017467,31.01809030000004,None,,0.2,001,2020_Oct_16_1653,temp,2020.1.3,None,
107,0,107,0,,,,,,,31.188198433330882,None,d,0.40467569999964326,31.17817719999948,None,,0.2,001,2020_Oct_16_1653,temp,2020.1.3,None,
108,0,108,0,,,,,,,31.628401533333573,None,d,0.1586435999997775,31.61826849999852,None,,0.2,001,2020_Oct_16_1653,temp,2020.1.3,None,
109,0,109,0,,,,,,,31.82845273333126,None,d,0.1150519999973767,31.81867019999845,None,,0.2,001,2020_Oct_16_1653,temp,2020.1.3,None,
110,0,110,0,,,,,,,31.975948333333264,None,d,0.14920600000186823,31.96587819999695,None,,0.2,001,2020_Oct_16_1653,temp,2020.1.3,None,
111,0,111,0,,,,,,,32.16323723333019,None,d,0.37387849999868195,32.15440209999724,None,,0.2,001,2020_Oct_16_1653,temp,2020.1.3,None,
112,0,112,0,,,,,,,32.56214003333346,None,d,0.13366580000001704,32.55197979999866,None,,0.2,001,2020_Oct_16_1653,temp,2020.1.3,None,
113,0,113,0,,,,,,,32.723710033330036,None,d,0.13860849999764469,32.71480259999953,None,,0.2,001,2020_Oct_16_1653,temp,2020.1.3,None,
114,0,114,0,,,,,,,32.89548073333256,None,d,0.13689499999964028,32.88496799999848,None,,0.2,001,2020_Oct_16_1653,temp,2020.1.3,None,
115,0,115,0,,,,,,,33.05579433333017,None,d,0.13502860000153305,33.04539459999796,None,,0.2,001,2020_Oct_16_1653,temp,2020.1.3,None,
116,0,116,0,,,,,,,33.21598853333174,None,d,0.10731379999924684,33.20538619999934,None,,0.2,001,2020_Oct_16_1653,temp,2020.1.3,None,
117,0,117,0,,,,,,,33.34923853333069,None,d,0.11395409999749972,33.339908599999035,None,,0.2,001,2020_Oct_16_1653,temp,2020.1.3,None,
118,0,118,0,,,,,,,33.51030653333194,None,d,0.10438749999957508,33.50074559999848,None,,0.2,001,2020_Oct_16_1653,temp,2020.1.3,None,
119,0,119,0,,,,,,,33.64397303333365,None,d,0.127884699999413,33.63408659999914,None,,0.2,001,2020_Oct_16_1653,temp,2020.1.3,None,
120,0,120,0,,,,,,,33.80256093333131,None,d,0.1297002000028442,33.793178899999475,None,,0.2,001,2020_Oct_16_1653,temp,2020.1.3,None,
121,0,121,0,,,,,,,33.97617623333329,None,d,0.11399399999936577,33.965048599999136,None,,0.2,001,2020_Oct_16_1653,temp,2020.1.3,None,
122,0,122,0,,,,,,,34.122500533333124,None,d,0.14125659999990603,34.11266359999718,None,,0.2,001,2020_Oct_16_1653,temp,2020.1.3,None,
123,0,123,0,,,,,,,34.309418333331024,None,d,0.11398790000021108,34.29951289999735,None,,0.2,001,2020_Oct_16_1653,temp,2020.1.3,None,
124,0,124,0,,,,,,,34.45700683333101,None,d,0.14672730000165757,34.44614849999925,None,,0.2,001,2020_Oct_16_1653,temp,2020.1.3,None,
125,0,125,0,,,,,,,34.64277573333359,None,d,0.30816090000007534,34.63206899999932,None,,0.2,001,2020_Oct_16_1653,temp,2020.1.3,None,
126,0,126,0,,,,,,,34.97642613333349,None,d,0.16057619999992312,34.96645829999761,None,,0.2,001,2020_Oct_16_1653,temp,2020.1.3,None,
127,0,127,0,,,,,,,35.17661913333043,None,d,0.1368795999987924,35.167127299999265,None,,0.2,001,2020_Oct_16_1653,temp,2020.1.3,None,
128,0,128,0,,,,,,,35.336623333333165,None,d,0.1447139000010793,35.32659280000007,None,,0.2,001,2020_Oct_16_1653,temp,2020.1.3,None,
129,0,129,0,,,,,,,35.50986303333096,None,d,0.1409205000018119,35.499643999999535,None,,0.2,001,2020_Oct_16_1653,temp,2020.1.3,None,
130,0,130,0,,,,,,,35.68325243333359,None,d,0.10430579999956535,35.67239349999727,None,,0.2,001,2020_Oct_16_1653,temp,2020.1.3,None,
131,0,131,0,,,,,,,35.816713933331386,None,d,0.13047800000276766,35.80697639999926,None,,0.2,001,2020_Oct_16_1653,temp,2020.1.3,None,
132,0,132,0,,,,,,,35.99132793333095,None,d,0.12465159999919706,35.981280199997855,None,,0.2,001,2020_Oct_16_1653,temp,2020.1.3,None,
133,0,133,0,,,,,,,36.15015213333075,None,d,0.06947869999930845,36.13933019999968,None,,0.2,001,2020_Oct_16_1653,temp,2020.1.3,None,
134,0,134,0,,,,,,,36.25822073333305,None,d,0.16792630000054487,36.24707589999889,None,,0.2,001,2020_Oct_16_1653,temp,2020.1.3,None,
135,0,135,0,,,,,,,36.45709133333051,None,d,0.09362920000057784,36.44671879999805,None,,0.2,001,2020_Oct_16_1653,temp,2020.1.3,None,
136,0,136,0,,,,,,,36.57688733333319,None,d,0.062293099999806145,36.56711769999674,None,,0.2,001,2020_Oct_16_1653,temp,2020.1.3,None,
137,0,137,0,,,,,,,36.67021533333221,None,d,0.04889600000024075,36.65930369999842,None,,0.2,001,2020_Oct_16_1653,temp,2020.1.3,None,
138,0,138,0,,,,,,,36.7516212333326,None,d,0.05449660000158474,36.742403999996895,None,,0.2,001,2020_Oct_16_1653,temp,2020.1.3,None,
139,0,139,0,,,,,,,36.830579633330245,None,d,0.12418289999914123,36.820910399997956,None,,0.2,001,2020_Oct_16_1653,temp,2020.1.3,None,
140,0,140,0,,,,,,,36.99052163333229,None,d,0.044640999996772734,36.980197599998064,None,,0.2,001,2020_Oct_16_1653,temp,2020.1.3,None,
141,0,141,0,,,,,,,37.05806263333264,None,d,0.05283920000147191,37.04992329999732,None,,0.2,001,2020_Oct_16_1653,temp,2020.1.3,None,
142,0,142,0,,,,,,,37.1375292333328,None,d,0.05620229999840376,37.12733979999757,None,,0.2,001,2020_Oct_16_1653,temp,2020.1.3,None,
143,0,143,0,,,,,,,37.21714693333027,None,d,0.05658929999844986,37.207599800000025,None,,0.2,001,2020_Oct_16_1653,temp,2020.1.3,None,
144,0,144,0,,,,,,,37.297399933330354,None,d,0.05355509999935748,37.287312999997084,None,,0.2,001,2020_Oct_16_1653,temp,2020.1.3,None,
145,0,145,0,,,,,,,37.377382533330575,None,d,0.05560960000002524,37.367813199998636,None,,0.2,001,2020_Oct_16_1653,temp,2020.1.3,None,
146,0,146,0,,,,,,,37.45710533333161,None,d,0.05812380000133999,37.4470760999975,None,,0.2,001,2020_Oct_16_1653,temp,2020.1.3,None,
147,0,147,0,,,,,,,37.53749903333349,None,d,0.13171009999859962,37.526687499997934,None,,0.2,001,2020_Oct_16_1653,temp,2020.1.3,None,
148,0,148,0,,,,,,,37.69719173333263,None,d,0.06984440000087488,37.68572829999903,None,,0.2,001,2020_Oct_16_1653,temp,2020.1.3,None,
149,0,149,0,,,,,,,37.791888933330966,None,d,0.06089140000040061,37.78185649999796,None,,0.2,001,2020_Oct_16_1653,temp,2020.1.3,None,
150,0,150,0,,,,,,,37.88392383333169,None,d,0.05269659999976284,37.87493329999779,None,,0.2,001,2020_Oct_16_1653,temp,2020.1.3,None,
151,0,151,0,,,,,,,37.96519033333291,None,d,0.07004139999844483,37.95432819999769,None,,0.2,001,2020_Oct_16_1653,temp,2020.1.3,None,
152,0,152,0,,,,,,,38.05761123333335,None,d,0.045535999997809995,38.051435800000036,None,,0.2,001,2020_Oct_16_1653,temp,2020.1.3,None,
153,0,153,0,,,,,,,38.13762433333298,None,d,0.23592869999993127,38.12804399999732,None,,0.2,001,2020_Oct_16_1653,temp,2020.1.3,None,
154,0,154,0,,,,,,,38.40581913333202,None,d,1.165815999996994,38.39599850000013,None,,0.2,001,2020_Oct_16_1653,temp,2020.1.3,None,
155,0,155,0,,,,,,,39.60459313333243,None,d,0.12546429999929387,39.594097399996826,None,,0.2,001,2020_Oct_16_1653,temp,2020.1.3,None,
156,0,156,0,,,,,,,39.76456283333076,None,d,0.12277419999736594,39.755088799996884,None,,0.2,001,2020_Oct_16_1653,temp,2020.1.3,None,
157,0,157,0,,,,,,,39.91272653333047,None,d,0.14660340000045835,39.90220419999969,None,,0.2,001,2020_Oct_16_1653,temp,2020.1.3,None,
158,0,158,0,,,,,,,40.08486313333245,None,d,0.15989140000237967,40.075122599999304,None,,0.2,001,2020_Oct_16_1653,temp,2020.1.3,None,
159,0,159,0,,,,,,,40.2714387333331,None,d,0.16052819999822532,40.262617899999896,None,,0.2,001,2020_Oct_16_1653,temp,2020.1.3,None,
160,0,160,0,,,,,,,40.47156643333122,None,d,0.12726929999917047,40.46272019999742,None,,0.2,001,2020_Oct_16_1653,temp,2020.1.3,None,
161,0,161,0,,,,,,,40.63164673333134,None,d,0.15547850000075414,40.62179159999869,None,,0.2,001,2020_Oct_16_1653,temp,2020.1.3,None,
162,0,162,0,,,,,,,40.818363633331074,None,d,0.807093100000202,40.80739299999914,None,,0.2,001,2020_Oct_16_1653,temp,2020.1.3,None,
163,0,163,0,,,,,,,41.65865433333286,None,d,0.9020258999989892,41.64678920000006,None,,0.2,001,2020_Oct_16_1653,temp,2020.1.3,None,
164,0,164,0,,,,,,,42.59231693333325,None,d,0.4213880999996036,42.580195299997285,None,,0.2,001,2020_Oct_16_1653,temp,2020.1.3,None,
165,0,165,0,,,,,,,43.04588843333161,None,d,1.406430699997145,43.03444870000021,None,,0.2,001,2020_Oct_16_1653,temp,2020.1.3,None,
166,0,166,0,,,,,,,44.49983843333078,None,d,0.20693200000096112,44.49000650000016,None,,0.2,001,2020_Oct_16_1653,temp,2020.1.3,None,
167,0,167,0,,,,,,,44.73983473333331,None,d,0.1398066999972798,44.72836749999988,None,,0.2,001,2020_Oct_16_1653,temp,2020.1.3,None,
168,0,168,0,,,,,,,44.91319653333315,None,d,0.11852780000117491,44.90276389999781,None,,0.2,001,2020_Oct_16_1653,temp,2020.1.3,None,
169,0,169,0,,,,,,,45.059919033331,None,d,0.1251312999993388,45.049516699997184,None,,0.2,001,2020_Oct_16_1653,temp,2020.1.3,None,
170,0,170,0,,,,,,,45.20669453333224,None,d,0.14952719999928377,45.19619809999858,None,,0.2,001,2020_Oct_16_1653,temp,2020.1.3,None,
171,0,171,0,,,,,,,45.3804868333323,None,d,0.12395789999936824,45.371176799999375,None,,0.2,001,2020_Oct_16_1653,temp,2020.1.3,None,
172,0,172,0,,,,,,,45.523511866664435,None,d,0.10405080000055023,45.527584799998294,None,,0.2,001,2020_Oct_16_1653,temp,2020.1.3,None,
173,0,173,0,,,,,,,45.673456433331495,None,d,0.12503880000076606,45.663706999999704,None,,0.2,001,2020_Oct_16_1653,temp,2020.1.3,None,
174,0,174,0,,,,,,,45.847406833331235,None,d,0.1572903000014776,45.83693679999851,None,,0.2,001,2020_Oct_16_1653,temp,2020.1.3,None,
175,0,175,0,,,,,,,46.04725863333127,None,d,0.16932699999961187,46.039031699998304,None,,0.2,001,2020_Oct_16_1653,temp,2020.1.3,None,
176,0,176,0,,,,,,,46.24725883333352,None,d,0.15259969999897294,46.2379157999967,None,,0.2,001,2020_Oct_16_1653,temp,2020.1.3,None,
177,0,177,0,,,,,,,46.447207533332886,None,d,0.12490519999846583,46.436205699999846,None,,0.2,001,2020_Oct_16_1653,temp,2020.1.3,None,
178,0,178,0,,,,,,,46.59372623333232,None,d,0.7008638999977848,46.585745999997016,None,,0.2,001,2020_Oct_16_1653,temp,2020.1.3,None,
179,0,179,0,,,,,,,47.327690933333116,None,d,0.672858300000371,47.31763019999926,None,,0.2,001,2020_Oct_16_1653,temp,2020.1.3,None,
180,0,180,0,,,,,,,48.03469693333366,None,d,0.13545869999870774,48.02354049999849,None,,0.2,001,2020_Oct_16_1653,temp,2020.1.3,None,
181,0,181,0,,,,,,,48.19464453333106,None,d,0.15472550000049523,48.18535119999797,None,,0.2,001,2020_Oct_16_1653,temp,2020.1.3,None,
182,0,182,0,,,,,,,48.395982933333045,None,d,0.16467140000168,48.38573189999806,None,,0.2,001,2020_Oct_16_1653,temp,2020.1.3,None,
183,0,183,0,,,,,,,48.595121033330116,None,d,0.6452698000030068,48.58601309999722,None,,0.2,001,2020_Oct_16_1653,temp,2020.1.3,None,
184,0,184,0,,,,,,,49.2749628333336,None,d,0.2946635000007518,49.26524829999835,None,,0.2,001,2020_Oct_16_1653,temp,2020.1.3,None,
185,0,185,0,,,,,,,49.59543543333032,None,d,0.17054970000026515,49.586089399999764,None,,0.2,001,2020_Oct_16_1653,temp,2020.1.3,None,
186,0,186,0,,,,,,,49.795043133330665,None,d,0.6145799000005354,49.78549999999814,None,,0.2,001,2020_Oct_16_1653,temp,2020.1.3,None,
187,0,187,0,,,,,,,50.43587143333255,None,d,0.518255399998452,50.4261185999967,None,,0.2,001,2020_Oct_16_1653,temp,2020.1.3,None,
188,0,188,0,,,,,,,50.98243653333023,None,d,0.6072469999999157,50.9716843999995,None,,0.2,001,2020_Oct_16_1653,temp,2020.1.3,None,
189,0,189,0,,,,,,,51.622281533331744,None,d,0.8914382000002661,51.61168579999867,None,,0.2,001,2020_Oct_16_1653,temp,2020.1.3,None,
190,0,190,0,,,,,,,52.54268923333123,None,d,3.2807639999991807,52.53261219999695,None,,0.2,001,2020_Oct_16_1653,temp,2020.1.3,None,
191,0,191,0,,,,,,,55.85057363333229,None,d,1.1246361000012257,55.840436399998,None,,0.2,001,2020_Oct_16_1653,temp,2020.1.3,None,
192,0,192,0,,,,,,,56.9977771333329,None,d,1.7556049000013445,56.98842119999972,None,,0.2,001,2020_Oct_16_1653,temp,2020.1.3,None,
193,0,193,0,,,,,,,58.7851174333305,None,u,25.188144299998385,58.774761799999396,None,,0.2,001,2020_Oct_16_1653,temp,2020.1.3,None,
194,0,194,0,,,,,,,83.99075096666662,None,u,0.8554153999975824,83.9953432000002,None,,0.2,001,2020_Oct_16_1653,temp,2020.1.3,None,
195,0,195,0,,,,,,,84.88799383333074,None,u,0.6330015000021376,84.87704309999754,None,,0.2,001,2020_Oct_16_1653,temp,2020.1.3,None,
196,0,196,0,,,,,,,85.55461203333155,None,u,0.736772899999778,85.54446029999963,None,,0.2,001,2020_Oct_16_1653,temp,2020.1.3,None,
197,0,197,0,,,,,,,86.31541503333258,None,d,1.5940802000004624,86.30565559999741,None,,0.2,001,2020_Oct_16_1653,temp,2020.1.3,None,
198,0,198,0,,,,,,,87.95579533333196,None,d,0.7658842999990156,87.94429179999861,None,,0.2,001,2020_Oct_16_1653,temp,2020.1.3,None,
199,0,199,0,,,,,,,88.75591783333269,None,d,0.3560849999994389,88.74617779999971,None,,0.2,001,2020_Oct_16_1653,temp,2020.1.3,None,
200,0,200,0,,,,,,,89.15614893333307,None,d,0.5449313999997685,89.14518679999674,None,,0.2,001,2020_Oct_16_1653,temp,2020.1.3,None,
201,0,201,0,,,,,,,89.72961813333362,None,d,0.31727040000259876,89.7206886999993,None,,0.2,001,2020_Oct_16_1653,temp,2020.1.3,None,
202,0,202,0,,,,,,,90.09002243333137,None,d,0.5192534999987402,90.07872139999745,None,,0.2,001,2020_Oct_16_1653,temp,2020.1.3,None,
203,0,203,0,,,,,,,90.63659083333235,None,d,0.5108559999971476,90.62688809999963,None,,0.2,001,2020_Oct_16_1653,temp,2020.1.3,None,
204,0,204,0,,,,,,,91.17021423333111,None,d,0.6414009000000078,91.16036410000015,None,,0.2,001,2020_Oct_16_1653,temp,2020.1.3,None,
205,0,205,0,,,,,,,91.83726343333231,None,d,0.5295101000010618,91.82791799999904,None,,0.2,001,2020_Oct_16_1653,temp,2020.1.3,None,
206,0,206,0,,,,,,,92.39747423333077,None,d,2.320632499999192,92.38741989999835,None,,0.2,001,2020_Oct_16_1653,temp,2020.1.3,None,
207,0,207,0,,,,,,,94.74453643333302,None,u,1.6147305999984383,94.73454149999816,None,,0.2,001,2020_Oct_16_1653,temp,2020.1.3,None,
208,0,208,0,,,,,,,96.39853043333326,None,u,13.832594699997571,96.3879253999985,None,,0.2,001,2020_Oct_16_1653,temp,2020.1.3,None,
209,0,209,0,,,,,,,110.24030416666598,None,u,1.245949500000279,110.24570179999864,None,,0.2,001,2020_Oct_16_1653,temp,2020.1.3,None,
210,0,210,0,,,,,,,111.52435013333209,None,u,0.7022838999982923,111.51323399999819,None,,0.2,001,2020_Oct_16_1653,temp,2020.1.3,None,
211,0,211,0,,,,,,,112.25759933333077,None,u,0.32525410000016564,112.24587489999976,None,,0.2,001,2020_Oct_16_1653,temp,2020.1.3,None,
212,0,212,0,,,,,,,112.60479283333237,None,u,0.18999999999869033,112.59297759999754,None,,0.2,001,2020_Oct_16_1653,temp,2020.1.3,None,
213,0,213,0,,,,,,,112.83148253333323,None,u,0.1974383000015223,112.83200609999767,None,,0.2,001,2020_Oct_16_1653,temp,2020.1.3,None,
214,0,214,0,,,,,,,113.07166333333274,None,u,0.2479325999993307,113.06184819999908,None,,0.2,001,2020_Oct_16_1653,temp,2020.1.3,None,
