trials.thisRepN,trials.thisTrialN,trials.thisN,trials.thisIndex,text.started,text.stopped,key_resp_2.keys,key_resp_2.rt,key_resp_2.started,key_resp_2.stopped,sound_1.started,sound_1.stopped,key_resp.keys,key_resp.rt,key_resp.started,key_resp.stopped,text_2.started,text_2.stopped,participant,input,session,date,expName,psychopyVersion,frameRate,
,,,,18.74310759996297,18.74310759996297,space,1.9026784999878146,18.74310759996297,None,,,,,,,,,,0.2,001,2020_Oct_19_1325,temp,2020.1.3,None,
0,0,0,0,,,,,,,20.687919233293115,None,u,2.7695287999813445,20.6858073999756,None,20.6858073999756,None,,0.2,001,2020_Oct_19_1325,temp,2020.1.3,None,
1,0,1,0,,,,,,,23.48904413329049,None,u,1.0634952000109479,23.491762199962977,None,23.491762199962977,None,,0.2,001,2020_Oct_19_1325,temp,2020.1.3,None,
2,0,2,0,,,,,,,24.595802933276474,None,u,1.0406737999874167,24.597850999969523,None,24.597850999969523,None,,0.2,001,2020_Oct_19_1325,temp,2020.1.3,None,
3,0,3,0,,,,,,,25.676275533282507,None,u,0.14884170005097985,25.676537899998948,None,25.676537899998948,None,,0.2,001,2020_Oct_19_1325,temp,2020.1.3,None,
4,0,4,0,,,,,,,25.862902033325128,None,u,0.14878399996086955,25.863822099985555,None,25.863822099985555,None,,0.2,001,2020_Oct_19_1325,temp,2020.1.3,None,
5,0,5,0,,,,,,,26.04983583332117,None,u,0.11207609996199608,26.048889499972574,None,26.048889499972574,None,,0.2,001,2020_Oct_19_1325,temp,2020.1.3,None,
6,0,6,0,,,,,,,26.19737673330431,None,u,0.09039470000425354,26.19639069994446,None,26.19639069994446,None,,0.2,001,2020_Oct_19_1325,temp,2020.1.3,None,
7,0,7,0,,,,,,,26.331486233285005,None,u,0.11880810000002384,26.33320699998876,None,26.33320699998876,None,,0.2,001,2020_Oct_19_1325,temp,2020.1.3,None,
8,0,8,0,,,,,,,26.504571333302493,None,u,0.07208620000164956,26.505951699975412,None,26.505951699975412,None,,0.2,001,2020_Oct_19_1325,temp,2020.1.3,None,
9,0,9,0,,,,,,,26.611739833323128,None,u,0.09895780001534149,26.613464800000656,None,26.613464800000656,None,,0.2,001,2020_Oct_19_1325,temp,2020.1.3,None,
10,0,10,0,,,,,,,26.744851333329763,None,u,0.1122112000011839,26.745708099973854,None,26.745708099973854,None,,0.2,001,2020_Oct_19_1325,temp,2020.1.3,None,
11,0,11,0,,,,,,,26.905098833326093,None,u,0.08947539998916909,26.905243599961977,None,26.905243599961977,None,,0.2,001,2020_Oct_19_1325,temp,2020.1.3,None,
12,0,12,0,,,,,,,27.03837323329256,None,u,0.09868559997994453,27.038041199964937,None,27.038041199964937,None,,0.2,001,2020_Oct_19_1325,temp,2020.1.3,None,
13,0,13,0,,,,,,,27.170160433285247,None,u,0.10092230001464486,27.171508399944287,None,27.171508399944287,None,,0.2,001,2020_Oct_19_1325,temp,2020.1.3,None,
14,0,14,0,,,,,,,27.318447033300373,None,u,0.10489420004887506,27.318349799956195,None,27.318349799956195,None,,0.2,001,2020_Oct_19_1325,temp,2020.1.3,None,
15,0,15,0,,,,,,,27.465234733310837,None,u,0.09556829999201,27.46430979995057,None,27.46430979995057,None,,0.2,001,2020_Oct_19_1325,temp,2020.1.3,None,
16,0,16,0,,,,,,,27.598448433280765,None,u,0.09181650000391528,27.599288199970033,None,27.599288199970033,None,,0.2,001,2020_Oct_19_1325,temp,2020.1.3,None,
17,0,17,0,,,,,,,27.730421833294287,None,u,0.1027170000015758,27.73844749998534,None,27.73844749998534,None,,0.2,001,2020_Oct_19_1325,temp,2020.1.3,None,
18,0,18,0,,,,,,,27.878710533325403,None,u,0.11059900000691414,27.882043799967505,None,27.882043799967505,None,,0.2,001,2020_Oct_19_1325,temp,2020.1.3,None,
19,0,19,0,,,,,,,28.024536533288966,None,u,0.12916249997215346,28.025910699972883,None,28.025910699972883,None,,0.2,001,2020_Oct_19_1325,temp,2020.1.3,None,
20,0,20,0,,,,,,,28.19780383329683,None,u,0.11045340000418946,28.196532299974933,None,28.196532299974933,None,,0.2,001,2020_Oct_19_1325,temp,2020.1.3,None,
21,0,21,0,,,,,,,28.345562633309356,None,u,0.10134480003034696,28.344396899978165,None,28.344396899978165,None,,0.2,001,2020_Oct_19_1325,temp,2020.1.3,None,
22,0,22,0,,,,,,,28.478345833319082,None,u,0.11824470001738518,28.478349999990314,None,28.478349999990314,None,,0.2,001,2020_Oct_19_1325,temp,2020.1.3,None,
23,0,23,0,,,,,,,28.65088273329505,None,u,0.0970653000404127,28.649782499996945,None,28.649782499996945,None,,0.2,001,2020_Oct_19_1325,temp,2020.1.3,None,
24,0,24,0,,,,,,,28.78482433327784,None,u,0.10193860001163557,28.78421279997565,None,28.78421279997565,None,,0.2,001,2020_Oct_19_1325,temp,2020.1.3,None,
25,0,25,0,,,,,,,28.93169493327926,None,u,0.11530559998936951,28.930564999987837,None,28.930564999987837,None,,0.2,001,2020_Oct_19_1325,temp,2020.1.3,None,
26,0,26,0,,,,,,,29.07856413332823,None,u,0.12958780000917614,29.07779389998177,None,29.07779389998177,None,,0.2,001,2020_Oct_19_1325,temp,2020.1.3,None,
27,0,27,0,,,,,,,29.251485633322346,None,u,0.092137300001923,29.252917499979958,None,29.252917499979958,None,,0.2,001,2020_Oct_19_1325,temp,2020.1.3,None,
28,0,28,0,,,,,,,29.384284033331397,None,u,0.13415019999956712,29.38340639998205,None,29.38340639998205,None,,0.2,001,2020_Oct_19_1325,temp,2020.1.3,None,
29,0,29,0,,,,,,,29.5577706333211,None,u,0.08781009999802336,29.557721799996216,None,29.557721799996216,None,,0.2,001,2020_Oct_19_1325,temp,2020.1.3,None,
30,0,30,0,,,,,,,29.677900633316796,None,u,0.10704979998990893,29.676505799987353,None,29.676505799987353,None,,0.2,001,2020_Oct_19_1325,temp,2020.1.3,None,
31,0,31,0,,,,,,,29.824546233292978,None,u,0.11915659997612238,29.824675699986983,None,29.824675699986983,None,,0.2,001,2020_Oct_19_1325,temp,2020.1.3,None,
32,0,32,0,,,,,,,29.98451073328809,None,u,0.11536409996915609,29.984294699970633,None,29.984294699970633,None,,0.2,001,2020_Oct_19_1325,temp,2020.1.3,None,
33,0,33,0,,,,,,,30.144649733331363,None,u,0.09430160000920296,30.14330399996834,None,30.14330399996834,None,,0.2,001,2020_Oct_19_1325,temp,2020.1.3,None,
34,0,34,0,,,,,,,30.27786053327921,None,u,0.11342579999472946,30.276481099950615,None,30.276481099950615,None,,0.2,001,2020_Oct_19_1325,temp,2020.1.3,None,
35,0,35,0,,,,,,,30.425284433302778,None,u,0.11799449997488409,30.4246932999813,None,30.4246932999813,None,,0.2,001,2020_Oct_19_1325,temp,2020.1.3,None,
36,0,36,0,,,,,,,30.598205833296134,None,u,0.08377409999957308,30.59670469997218,None,30.59670469997218,None,,0.2,001,2020_Oct_19_1325,temp,2020.1.3,None,
37,0,37,0,,,,,,,30.718602133282303,None,u,0.12379420001525432,30.716840799956117,None,30.716840799956117,None,,0.2,001,2020_Oct_19_1325,temp,2020.1.3,None,
38,0,38,0,,,,,,,30.878259833327803,None,u,0.11412330000894144,30.878717899962794,None,30.878717899962794,None,,0.2,001,2020_Oct_19_1325,temp,2020.1.3,None,
39,0,39,0,,,,,,,31.025218933304615,None,u,0.13045749999582767,31.024782499996945,None,31.024782499996945,None,,0.2,001,2020_Oct_19_1325,temp,2020.1.3,None,
40,0,40,0,,,,,,,31.198465633330244,None,u,0.11740719998488203,31.1987801999785,None,31.1987801999785,None,,0.2,001,2020_Oct_19_1325,temp,2020.1.3,None,
41,0,41,0,,,,,,,31.35910453328009,None,u,0.11650810000719503,31.356633199960925,None,31.356633199960925,None,,0.2,001,2020_Oct_19_1325,temp,2020.1.3,None,
42,0,42,0,,,,,,,31.50581023330645,None,u,0.9750956000061706,31.506122299993876,None,31.506122299993876,None,,0.2,001,2020_Oct_19_1325,temp,2020.1.3,None,
43,0,43,0,,,,,,,32.53226103331738,None,u,0.11209750000853091,32.531807699997444,None,32.531807699997444,None,,0.2,001,2020_Oct_19_1325,temp,2020.1.3,None,
44,0,44,0,,,,,,,32.67871093331681,None,u,0.09626180003397167,32.67757789994357,None,32.67757789994357,None,,0.2,001,2020_Oct_19_1325,temp,2020.1.3,None,
45,0,45,0,,,,,,,32.81249643333334,None,u,0.596173900004942,32.81351929996163,None,32.81351929996163,None,,0.2,001,2020_Oct_19_1325,temp,2020.1.3,None,
46,0,46,0,,,,,,,33.45270213328379,None,u,0.09547970001585782,33.453663799969945,None,33.453663799969945,None,,0.2,001,2020_Oct_19_1325,temp,2020.1.3,None,
47,0,47,0,,,,,,,33.586176333316445,None,u,0.10090069996658713,33.58565429999726,None,33.58565429999726,None,,0.2,001,2020_Oct_19_1325,temp,2020.1.3,None,
48,0,48,0,,,,,,,33.720130733280286,None,u,0.11125070002162829,33.72075049998239,None,33.72075049998239,None,,0.2,001,2020_Oct_19_1325,temp,2020.1.3,None,
49,0,49,0,,,,,,,33.881010833320516,None,u,0.09975850000046194,33.88135339994915,None,33.88135339994915,None,,0.2,001,2020_Oct_19_1325,temp,2020.1.3,None,
50,0,50,0,,,,,,,34.01369473333082,None,u,0.1104106999700889,34.01135249994695,None,34.01135249994695,None,,0.2,001,2020_Oct_19_1325,temp,2020.1.3,None,
51,0,51,0,,,,,,,34.15972013329932,None,u,0.10214719997020438,34.15728419995867,None,34.15728419995867,None,,0.2,001,2020_Oct_19_1325,temp,2020.1.3,None,
52,0,52,0,,,,,,,34.2935510333123,None,u,0.11925690004136413,34.29278829996474,None,34.29278829996474,None,,0.2,001,2020_Oct_19_1325,temp,2020.1.3,None,
53,0,53,0,,,,,,,34.45365933329643,None,u,0.11191999999573454,34.451905699970666,None,34.451905699970666,None,,0.2,001,2020_Oct_19_1325,temp,2020.1.3,None,
54,0,54,0,,,,,,,34.614030133300304,None,u,0.10339869995368645,34.61352889996488,None,34.61352889996488,None,,0.2,001,2020_Oct_19_1325,temp,2020.1.3,None,
55,0,55,0,,,,,,,34.760421833322226,None,u,0.09851199999684468,34.7585151999956,None,34.7585151999956,None,,0.2,001,2020_Oct_19_1325,temp,2020.1.3,None,
56,0,56,0,,,,,,,34.89378633327627,None,u,0.11055089998990297,34.893182199972216,None,34.893182199972216,None,,0.2,001,2020_Oct_19_1325,temp,2020.1.3,None,
57,0,57,0,,,,,,,35.0408072333162,None,u,0.11801630002446473,35.04016909998609,None,35.04016909998609,None,,0.2,001,2020_Oct_19_1325,temp,2020.1.3,None,
58,0,58,0,,,,,,,35.20117683331094,None,u,0.10495589999482036,35.20118929998716,None,35.20118929998716,None,,0.2,001,2020_Oct_19_1325,temp,2020.1.3,None,
59,0,59,0,,,,,,,35.36085133330974,None,u,0.09501889999955893,35.35967829998117,None,35.35967829998117,None,,0.2,001,2020_Oct_19_1325,temp,2020.1.3,None,
60,0,60,0,,,,,,,35.494252833312686,None,u,0.12385489995358512,35.49297959997784,None,35.49297959997784,None,,0.2,001,2020_Oct_19_1325,temp,2020.1.3,None,
61,0,61,0,,,,,,,35.65317483328593,None,u,0.11390619998564944,35.65338759997394,None,35.65338759997394,None,,0.2,001,2020_Oct_19_1325,temp,2020.1.3,None,
62,0,62,0,,,,,,,35.80007433333279,None,u,0.11272639996604994,35.801015999983065,None,35.801015999983065,None,,0.2,001,2020_Oct_19_1325,temp,2020.1.3,None,
63,0,63,0,,,,,,,35.96013283328696,None,u,0.10952290002023801,35.96004479995463,None,35.96004479995463,None,,0.2,001,2020_Oct_19_1325,temp,2020.1.3,None,
64,0,64,0,,,,,,,36.10648923333113,None,u,0.11792789999162778,36.105539199954364,None,36.105539199954364,None,,0.2,001,2020_Oct_19_1325,temp,2020.1.3,None,
65,0,65,0,,,,,,,36.266868633284076,None,u,0.10845800000242889,36.26618789997883,None,36.26618789997883,None,,0.2,001,2020_Oct_19_1325,temp,2020.1.3,None,
66,0,66,0,,,,,,,36.42688473332285,None,u,0.10182300000451505,36.42815239995252,None,36.42815239995252,None,,0.2,001,2020_Oct_19_1325,temp,2020.1.3,None,
67,0,67,0,,,,,,,36.57346143329826,None,u,0.1155371000058949,36.57275379996281,None,36.57275379996281,None,,0.2,001,2020_Oct_19_1325,temp,2020.1.3,None,
68,0,68,0,,,,,,,36.72033983330087,None,u,0.11562820000108331,36.719432099955156,None,36.719432099955156,None,,0.2,001,2020_Oct_19_1325,temp,2020.1.3,None,
69,0,69,0,,,,,,,36.86690863333254,None,u,0.126894400047604,36.866205299971625,None,36.866205299971625,None,,0.2,001,2020_Oct_19_1325,temp,2020.1.3,None,
70,0,70,0,,,,,,,37.02784123330687,None,u,0.11794680001912639,37.028248699964024,None,37.028248699964024,None,,0.2,001,2020_Oct_19_1325,temp,2020.1.3,None,
71,0,71,0,,,,,,,37.18784923328397,None,u,0.0944199999794364,37.18689709994942,None,37.18689709994942,None,,0.2,001,2020_Oct_19_1325,temp,2020.1.3,None,
72,0,72,0,,,,,,,37.32154943329127,None,u,0.10728409996954724,37.319452499970794,None,37.319452499970794,None,,0.2,001,2020_Oct_19_1325,temp,2020.1.3,None,
73,0,73,0,,,,,,,37.46726403327969,None,u,0.11293840000871569,37.46749469998758,None,37.46749469998758,None,,0.2,001,2020_Oct_19_1325,temp,2020.1.3,None,
74,0,74,0,,,,,,,37.6282184333036,None,u,0.10962730000028387,37.62836039997637,None,37.62836039997637,None,,0.2,001,2020_Oct_19_1325,temp,2020.1.3,None,
75,0,75,0,,,,,,,37.774657333277474,None,u,0.12962949997745454,37.774066099955235,None,37.774066099955235,None,,0.2,001,2020_Oct_19_1325,temp,2020.1.3,None,
76,0,76,0,,,,,,,37.94732723327664,None,u,0.11456529999850318,37.947414299997035,None,37.947414299997035,None,,0.2,001,2020_Oct_19_1325,temp,2020.1.3,None,
77,0,77,0,,,,,,,38.10747293331272,None,u,0.11299649998545647,38.106311499956064,None,38.106311499956064,None,,0.2,001,2020_Oct_19_1325,temp,2020.1.3,None,
78,0,78,0,,,,,,,38.254515933288104,None,u,0.12213910004356876,38.25498329999391,None,38.25498329999391,None,,0.2,001,2020_Oct_19_1325,temp,2020.1.3,None,
79,0,79,0,,,,,,,38.4141234333006,None,u,0.12261830002535135,38.413009199954104,None,38.413009199954104,None,,0.2,001,2020_Oct_19_1325,temp,2020.1.3,None,
80,0,80,0,,,,,,,38.574488633320044,None,u,0.12254899996332824,38.574166999955196,None,38.574166999955196,None,,0.2,001,2020_Oct_19_1325,temp,2020.1.3,None,
81,0,81,0,,,,,,,38.734388733290444,None,u,0.11360089998925105,38.735073299962096,None,38.735073299962096,None,,0.2,001,2020_Oct_19_1325,temp,2020.1.3,None,
82,0,82,0,,,,,,,38.8819306332812,None,u,0.13279230002081022,38.882837799959816,None,38.882837799959816,None,,0.2,001,2020_Oct_19_1325,temp,2020.1.3,None,
83,0,83,0,,,,,,,39.055593233330484,None,u,0.07560370001010597,39.05436259997077,None,39.05436259997077,None,,0.2,001,2020_Oct_19_1325,temp,2020.1.3,None,
84,0,84,0,,,,,,,39.175193633309874,None,u,0.1201427000341937,39.1737680999795,None,39.1737680999795,None,,0.2,001,2020_Oct_19_1325,temp,2020.1.3,None,
85,0,85,0,,,,,,,39.334603333329625,None,u,0.12691479997010902,39.33363279997138,None,39.33363279997138,None,,0.2,001,2020_Oct_19_1325,temp,2020.1.3,None,
86,0,86,0,,,,,,,39.50791463332328,None,u,0.10480079997796565,39.50567709997995,None,39.50567709997995,None,,0.2,001,2020_Oct_19_1325,temp,2020.1.3,None,
87,0,87,0,,,,,,,39.654789433298475,None,u,0.11640980001538992,39.65304219996324,None,39.65304219996324,None,,0.2,001,2020_Oct_19_1325,temp,2020.1.3,None,
88,0,88,0,,,,,,,39.81498303329184,None,u,0.10925789998145774,39.81440089998068,None,39.81440089998068,None,,0.2,001,2020_Oct_19_1325,temp,2020.1.3,None,
89,0,89,0,,,,,,,39.97515043331853,None,u,0.11777399998391047,39.97373929998139,None,39.97373929998139,None,,0.2,001,2020_Oct_19_1325,temp,2020.1.3,None,
90,0,90,0,,,,,,,40.13494703331574,None,u,1.1839349999791011,40.13654819998192,None,40.13654819998192,None,,0.2,001,2020_Oct_19_1325,temp,2020.1.3,None,
91,0,91,0,,,,,,,41.362148433291196,None,u,0.09404469997389242,41.364630199968815,None,41.364630199968815,None,,0.2,001,2020_Oct_19_1325,temp,2020.1.3,None,
92,0,92,0,,,,,,,41.49531003333007,None,u,0.11977069999556988,41.494106599944644,None,41.494106599944644,None,,0.2,001,2020_Oct_19_1325,temp,2020.1.3,None,
93,0,93,0,,,,,,,41.65564253333335,None,u,0.11619729996891692,41.65442779997829,None,41.65442779997829,None,,0.2,001,2020_Oct_19_1325,temp,2020.1.3,None,
94,0,94,0,,,,,,,41.815583633324906,None,u,0.12266890000319108,41.81427419994725,None,41.81427419994725,None,,0.2,001,2020_Oct_19_1325,temp,2020.1.3,None,
95,0,95,0,,,,,,,41.98890003329919,None,u,0.10143179999431595,41.989105199987534,None,41.989105199987534,None,,0.2,001,2020_Oct_19_1325,temp,2020.1.3,None,
96,0,96,0,,,,,,,42.122625233322225,None,u,0.1254779000300914,42.124069099954795,None,42.124069099954795,None,,0.2,001,2020_Oct_19_1325,temp,2020.1.3,None,
97,0,97,0,,,,,,,42.28330283333392,None,u,0.1309086999972351,42.28413429995999,None,42.28413429995999,None,,0.2,001,2020_Oct_19_1325,temp,2020.1.3,None,
98,0,98,0,,,,,,,42.45712533332019,None,u,0.09101190004730597,42.45806229999289,None,42.45806229999289,None,,0.2,001,2020_Oct_19_1325,temp,2020.1.3,None,
99,0,99,0,,,,,,,42.59009453329102,None,u,0.11358890001429245,42.59009299997706,None,42.59009299997706,None,,0.2,001,2020_Oct_19_1325,temp,2020.1.3,None,
100,0,100,0,,,,,,,42.73666813330104,None,u,0.12701270001707599,42.736400999943726,None,42.736400999943726,None,,0.2,001,2020_Oct_19_1325,temp,2020.1.3,None,
101,0,101,0,,,,,,,42.89600813331393,None,u,0.12987410003552213,42.89501299994299,None,42.89501299994299,None,,0.2,001,2020_Oct_19_1325,temp,2020.1.3,None,
102,0,102,0,,,,,,,43.069511533315136,None,u,0.11747399996966124,43.06893309997395,None,43.06893309997395,None,,0.2,001,2020_Oct_19_1325,temp,2020.1.3,None,
103,0,103,0,,,,,,,43.229544033304165,None,u,0.11311479995492846,43.229420999996364,None,43.229420999996364,None,,0.2,001,2020_Oct_19_1325,temp,2020.1.3,None,
104,0,104,0,,,,,,,43.37634443329492,None,u,0.11457650002557784,43.37612289999379,None,43.37612289999379,None,,0.2,001,2020_Oct_19_1325,temp,2020.1.3,None,
105,0,105,0,,,,,,,43.53656383331011,None,u,0.1092559999669902,43.53621239995118,None,43.53621239995118,None,,0.2,001,2020_Oct_19_1325,temp,2020.1.3,None,
106,0,106,0,,,,,,,43.683165033297456,None,u,0.12082319997716695,43.68324309994932,None,43.68324309994932,None,,0.2,001,2020_Oct_19_1325,temp,2020.1.3,None,
107,0,107,0,,,,,,,43.843249633333954,None,u,0.11961049999808893,43.84445189998951,None,43.84445189998951,None,,0.2,001,2020_Oct_19_1325,temp,2020.1.3,None,
108,0,108,0,,,,,,,44.00314963330359,None,u,0.12711840000702068,44.00287929998012,None,44.00287929998012,None,,0.2,001,2020_Oct_19_1325,temp,2020.1.3,None,
109,0,109,0,,,,,,,44.164650733299396,None,u,0.1223310999921523,44.163295199978165,None,44.163295199978165,None,,0.2,001,2020_Oct_19_1325,temp,2020.1.3,None,
110,0,110,0,,,,,,,44.33658893331497,None,u,0.10603859997354448,44.33656599995447,None,44.33656599995447,None,,0.2,001,2020_Oct_19_1325,temp,2020.1.3,None,
111,0,111,0,,,,,,,44.48326273333126,None,u,0.12193500000284985,44.48246539995307,None,44.48246539995307,None,,0.2,001,2020_Oct_19_1325,temp,2020.1.3,None,
112,0,112,0,,,,,,,44.643782833307824,None,u,0.12407269998220727,44.64256169996224,None,44.64256169996224,None,,0.2,001,2020_Oct_19_1325,temp,2020.1.3,None,
113,0,113,0,,,,,,,44.80364453327687,None,u,0.10819170001195744,44.801692299952265,None,44.801692299952265,None,,0.2,001,2020_Oct_19_1325,temp,2020.1.3,None,
114,0,114,0,,,,,,,44.95005593333238,None,u,0.12530060001881793,44.948788599984255,None,44.948788599984255,None,,0.2,001,2020_Oct_19_1325,temp,2020.1.3,None,
115,0,115,0,,,,,,,45.10988553328983,None,u,0.11198459996376187,45.111183399974834,None,45.111183399974834,None,,0.2,001,2020_Oct_19_1325,temp,2020.1.3,None,
116,0,116,0,,,,,,,45.256927733317326,None,u,0.11996670003281906,45.26441429997794,None,45.26441429997794,None,,0.2,001,2020_Oct_19_1325,temp,2020.1.3,None,
117,0,117,0,,,,,,,45.41699163331262,None,u,0.1294169999891892,45.41757809999399,None,45.41757809999399,None,,0.2,001,2020_Oct_19_1325,temp,2020.1.3,None,
118,0,118,0,,,,,,,45.589968433320365,None,u,0.10638030001427978,45.58965669997269,None,45.58965669997269,None,,0.2,001,2020_Oct_19_1325,temp,2020.1.3,None,
119,0,119,0,,,,,,,45.75048193330488,None,u,0.10087490000296384,45.749870399944484,None,45.749870399944484,None,,0.2,001,2020_Oct_19_1325,temp,2020.1.3,None,
120,0,120,0,,,,,,,45.88467483328034,None,u,0.3631734999944456,45.88524989999132,None,45.88524989999132,None,,0.2,001,2020_Oct_19_1325,temp,2020.1.3,None,
121,0,121,0,,,,,,,46.28426643327887,None,u,0.10845749999862164,46.28399719996378,None,46.28399719996378,None,,0.2,001,2020_Oct_19_1325,temp,2020.1.3,None,
122,0,122,0,,,,,,,46.43037863332623,None,u,0.121557800041046,46.42850539996289,None,46.42850539996289,None,,0.2,001,2020_Oct_19_1325,temp,2020.1.3,None,
123,0,123,0,,,,,,,46.59060173331139,None,u,0.13046459999168292,46.59053009998752,None,46.59053009998752,None,,0.2,001,2020_Oct_19_1325,temp,2020.1.3,None,
124,0,124,0,,,,,,,46.76413693332191,None,u,0.11936000001151115,46.76370809995569,None,46.76370809995569,None,,0.2,001,2020_Oct_19_1325,temp,2020.1.3,None,
125,0,125,0,,,,,,,46.92547123332818,None,u,0.11967550002736971,46.92586289998144,None,46.92586289998144,None,,0.2,001,2020_Oct_19_1325,temp,2020.1.3,None,
126,0,126,0,,,,,,,47.08420743328364,None,u,0.12935629999265075,47.08279329998186,None,47.08279329998186,None,,0.2,001,2020_Oct_19_1325,temp,2020.1.3,None,
127,0,127,0,,,,,,,47.25731173333091,None,u,0.12107499997364357,47.256941599946,None,47.256941599946,None,,0.2,001,2020_Oct_19_1325,temp,2020.1.3,None,
128,0,128,0,,,,,,,47.417571733306005,None,u,0.12235270004021004,47.41763639997225,None,47.41763639997225,None,,0.2,001,2020_Oct_19_1325,temp,2020.1.3,None,
129,0,129,0,,,,,,,47.5776012333304,None,u,0.13461699994513765,47.5778809999465,None,47.5778809999465,None,,0.2,001,2020_Oct_19_1325,temp,2020.1.3,None,
130,0,130,0,,,,,,,47.76568693330822,None,u,0.08988679997855797,47.76569559995551,None,47.76569559995551,None,,0.2,001,2020_Oct_19_1325,temp,2020.1.3,None,
131,0,131,0,,,,,,,47.897464833288296,None,u,0.09917549998499453,47.895612699969206,None,47.895612699969206,None,,0.2,001,2020_Oct_19_1325,temp,2020.1.3,None,
132,0,132,0,,,,,,,48.03233233327822,None,u,0.10872560000279918,48.03215789998649,None,48.03215789998649,None,,0.2,001,2020_Oct_19_1325,temp,2020.1.3,None,
133,0,133,0,,,,,,,48.17850963329741,None,u,0.09800499997800216,48.17657309997594,None,48.17657309997594,None,,0.2,001,2020_Oct_19_1325,temp,2020.1.3,None,
134,0,134,0,,,,,,,48.312260433282546,None,u,0.10397509997710586,48.31071549997432,None,48.31071549997432,None,,0.2,001,2020_Oct_19_1325,temp,2020.1.3,None,
135,0,135,0,,,,,,,48.44653173333111,None,u,0.11180040001636371,48.446645999967586,None,48.446645999967586,None,,0.2,001,2020_Oct_19_1325,temp,2020.1.3,None,
136,0,136,0,,,,,,,48.59326363332414,None,u,0.11734050000086427,48.59278029995039,None,48.59278029995039,None,,0.2,001,2020_Oct_19_1325,temp,2020.1.3,None,
137,0,137,0,,,,,,,48.765987533327035,None,u,0.08835150004597381,48.764905099989846,None,48.764905099989846,None,,0.2,001,2020_Oct_19_1325,temp,2020.1.3,None,
138,0,138,0,,,,,,,48.898935733312584,None,u,0.10547790001146495,48.897959999972954,None,48.897959999972954,None,,0.2,001,2020_Oct_19_1325,temp,2020.1.3,None,
139,0,139,0,,,,,,,49.045668433311704,None,u,0.11083050002343953,49.04542099998798,None,49.04542099998798,None,,0.2,001,2020_Oct_19_1325,temp,2020.1.3,None,
140,0,140,0,,,,,,,49.19237673329965,None,u,0.12378299998817965,49.1908905999735,None,49.1908905999735,None,,0.2,001,2020_Oct_19_1325,temp,2020.1.3,None,
141,0,141,0,,,,,,,49.36511693331025,None,u,0.11171640001703054,49.36557799996808,None,49.36557799996808,None,,0.2,001,2020_Oct_19_1325,temp,2020.1.3,None,
142,0,142,0,,,,,,,49.51224733331085,None,u,0.11757380003109574,49.51033279998228,None,49.51033279998228,None,,0.2,001,2020_Oct_19_1325,temp,2020.1.3,None,
143,0,143,0,,,,,,,49.67168793333306,None,u,0.12240330001804978,49.67103009996936,None,49.67103009996936,None,,0.2,001,2020_Oct_19_1325,temp,2020.1.3,None,
144,0,144,0,,,,,,,49.83160573332182,None,u,0.12920710002072155,49.83089249994373,None,49.83089249994373,None,,0.2,001,2020_Oct_19_1325,temp,2020.1.3,None,
145,0,145,0,,,,,,,50.005205233298085,None,u,0.118408799986355,50.005155899969395,None,50.005155899969395,None,,0.2,001,2020_Oct_19_1325,temp,2020.1.3,None,
146,0,146,0,,,,,,,50.16649133328659,None,u,0.10889470000984147,50.166325099999085,None,50.166325099999085,None,,0.2,001,2020_Oct_19_1325,temp,2020.1.3,None,
147,0,147,0,,,,,,,50.31222403329642,None,u,0.10110800003167242,50.31260609999299,None,50.31260609999299,None,,0.2,001,2020_Oct_19_1325,temp,2020.1.3,None,
148,0,148,0,,,,,,,50.44555903331687,None,u,0.11188589996891096,50.44666249997681,None,50.44666249997681,None,,0.2,001,2020_Oct_19_1325,temp,2020.1.3,None,
149,0,149,0,,,,,,,50.59345553333017,None,u,0.12691700004506856,50.592964499956,None,50.592964499956,None,,0.2,001,2020_Oct_19_1325,temp,2020.1.3,None,
150,0,150,0,,,,,,,50.75312173332398,None,u,0.12065529997926205,50.75866179994773,None,50.75866179994773,None,,0.2,001,2020_Oct_19_1325,temp,2020.1.3,None,
151,0,151,0,,,,,,,50.913890633332386,None,u,0.1371866999543272,50.91300589998718,None,50.91300589998718,None,,0.2,001,2020_Oct_19_1325,temp,2020.1.3,None,
152,0,152,0,,,,,,,51.08554743330072,None,u,0.1270661000162363,51.08520309999585,None,51.08520309999585,None,,0.2,001,2020_Oct_19_1325,temp,2020.1.3,None,
153,0,153,0,,,,,,,51.24590323330679,None,u,0.12360430002445355,51.2444365999545,None,51.2444365999545,None,,0.2,001,2020_Oct_19_1325,temp,2020.1.3,None,
154,0,154,0,,,,,,,51.40541483328755,None,u,0.10594179999316111,51.405748799967114,None,51.405748799967114,None,,0.2,001,2020_Oct_19_1325,temp,2020.1.3,None,
155,0,155,0,,,,,,,51.552342433315545,None,u,0.10607229999732226,51.5516114999773,None,51.5516114999773,None,,0.2,001,2020_Oct_19_1325,temp,2020.1.3,None,
156,0,156,0,,,,,,,51.71290333331174,None,u,0.08085900003788993,51.71288669999922,None,51.71288669999922,None,,0.2,001,2020_Oct_19_1325,temp,2020.1.3,None,
157,0,157,0,,,,,,,51.83252783330002,None,u,0.09796579997055233,51.83357329998398,None,51.83357329998398,None,,0.2,001,2020_Oct_19_1325,temp,2020.1.3,None,
158,0,158,0,,,,,,,51.97934123333155,None,u,0.16640669998014346,51.980925099982414,None,51.980925099982414,None,,0.2,001,2020_Oct_19_1325,temp,2020.1.3,None,
159,0,159,0,,,,,,,52.179381033297005,None,u,0.0801717999856919,52.17961489997106,None,52.17961489997106,None,,0.2,001,2020_Oct_19_1325,temp,2020.1.3,None,
160,0,160,0,,,,,,,52.30021163333052,None,u,0.12559250002959743,52.2999069999787,None,52.2999069999787,None,,0.2,001,2020_Oct_19_1325,temp,2020.1.3,None,
161,0,161,0,,,,,,,52.460015533325105,None,u,0.09906680003041402,52.458994399989024,None,52.458994399989024,None,,0.2,001,2020_Oct_19_1325,temp,2020.1.3,None,
162,0,162,0,,,,,,,52.594241533319774,None,u,0.1134077999740839,52.59348449995741,None,52.59348449995741,None,,0.2,001,2020_Oct_19_1325,temp,2020.1.3,None,
163,0,163,0,,,,,,,52.73949673330256,None,u,0.12972490000538528,52.739676199969836,None,52.739676199969836,None,,0.2,001,2020_Oct_19_1325,temp,2020.1.3,None,
164,0,164,0,,,,,,,52.92621083331372,None,u,0.09135260002221912,52.92479579994688,None,52.92479579994688,None,,0.2,001,2020_Oct_19_1325,temp,2020.1.3,None,
165,0,165,0,,,,,,,53.0597659333221,None,u,0.1362004000111483,53.057739199954085,None,53.057739199954085,None,,0.2,001,2020_Oct_19_1325,temp,2020.1.3,None,
166,0,166,0,,,,,,,53.232893933317,None,u,0.10937530000228435,53.232141399988905,None,53.232141399988905,None,,0.2,001,2020_Oct_19_1325,temp,2020.1.3,None,
167,0,167,0,,,,,,,53.39304153330934,None,u,0.10995869996258989,53.39276699995389,None,53.39276699995389,None,,0.2,001,2020_Oct_19_1325,temp,2020.1.3,None,
168,0,168,0,,,,,,,53.539530433314695,None,u,0.12935500004095957,53.537983099988196,None,53.537983099988196,None,,0.2,001,2020_Oct_19_1325,temp,2020.1.3,None,
169,0,169,0,,,,,,,53.69992053329091,None,u,0.1120130000053905,53.70406419999199,None,53.70406419999199,None,,0.2,001,2020_Oct_19_1325,temp,2020.1.3,None,
170,0,170,0,,,,,,,53.86107303330985,None,u,0.12758359999861568,53.85969799995655,None,53.85969799995655,None,,0.2,001,2020_Oct_19_1325,temp,2020.1.3,None,
171,0,171,0,,,,,,,54.01996043331067,None,u,0.135512100008782,54.017922699975315,None,54.017922699975315,None,,0.2,001,2020_Oct_19_1325,temp,2020.1.3,None,
172,0,172,0,,,,,,,54.19325423328749,None,u,0.13473160000285134,54.193594999960624,None,54.193594999960624,None,,0.2,001,2020_Oct_19_1325,temp,2020.1.3,None,
173,0,173,0,,,,,,,54.36668553332177,None,u,0.12402260000817478,54.36665499996161,None,54.36665499996161,None,,0.2,001,2020_Oct_19_1325,temp,2020.1.3,None,
174,0,174,0,,,,,,,54.526935833281215,None,u,0.11033680004766211,54.53006329998607,None,54.53006329998607,None,,0.2,001,2020_Oct_19_1325,temp,2020.1.3,None,
175,0,175,0,,,,,,,54.67372733332061,None,u,0.12717650004196912,54.67303669999819,None,54.67303669999819,None,,0.2,001,2020_Oct_19_1325,temp,2020.1.3,None,
176,0,176,0,,,,,,,54.83433953329998,None,u,0.12869670003419742,54.83314009994501,None,54.83314009994501,None,,0.2,001,2020_Oct_19_1325,temp,2020.1.3,None,
177,0,177,0,,,,,,,54.99488263327706,None,u,0.12846219999482855,54.99371529999189,None,54.99371529999189,None,,0.2,001,2020_Oct_19_1325,temp,2020.1.3,None,
178,0,178,0,,,,,,,55.167115033320925,None,u,0.12388369999825954,55.164523499959614,None,55.164523499959614,None,,0.2,001,2020_Oct_19_1325,temp,2020.1.3,None,
179,0,179,0,,,,,,,55.340552133282955,None,u,0.12399190000724047,55.339041899947915,None,55.339041899947915,None,,0.2,001,2020_Oct_19_1325,temp,2020.1.3,None,
180,0,180,0,,,,,,,55.500731333283085,None,u,0.13292320002801716,55.50031419994775,None,55.50031419994775,None,,0.2,001,2020_Oct_19_1325,temp,2020.1.3,None,
181,0,181,0,,,,,,,55.674553933328326,None,u,0.1282348000095226,55.673331399972085,None,55.673331399972085,None,,0.2,001,2020_Oct_19_1325,temp,2020.1.3,None,
182,0,182,0,,,,,,,55.8340453333299,None,u,0.1487333999830298,55.83364229998551,None,55.83364229998551,None,,0.2,001,2020_Oct_19_1325,temp,2020.1.3,None,
183,0,183,0,,,,,,,56.02060203330669,None,u,0.11469790001865476,56.019196999957785,None,56.019196999957785,None,,0.2,001,2020_Oct_19_1325,temp,2020.1.3,None,
184,0,184,0,,,,,,,56.167316933286685,None,u,0.14339500002097338,56.167798799986485,None,56.167798799986485,None,,0.2,001,2020_Oct_19_1325,temp,2020.1.3,None,
185,0,185,0,,,,,,,56.355618933281704,None,u,0.094830300018657,56.3545605999534,None,56.3545605999534,None,,0.2,001,2020_Oct_19_1325,temp,2020.1.3,None,
186,0,186,0,,,,,,,56.48914833332722,None,u,0.13514889997895807,56.49180539994268,None,56.49180539994268,None,,0.2,001,2020_Oct_19_1325,temp,2020.1.3,None,
187,0,187,0,,,,,,,56.67430463329268,None,u,0.12189139996189624,56.67275269998936,None,56.67275269998936,None,,0.2,001,2020_Oct_19_1325,temp,2020.1.3,None,
188,0,188,0,,,,,,,56.834044533323805,None,u,0.13017359998775646,56.83325239998521,None,56.83325239998521,None,,0.2,001,2020_Oct_19_1325,temp,2020.1.3,None,
189,0,189,0,,,,,,,57.007869033325306,None,u,0.12772170000243932,57.00706299999729,None,57.00706299999729,None,,0.2,001,2020_Oct_19_1325,temp,2020.1.3,None,
190,0,190,0,,,,,,,57.168048933330766,None,u,0.14565939997555688,57.166665499971714,None,57.166665499971714,None,,0.2,001,2020_Oct_19_1325,temp,2020.1.3,None,
191,0,191,0,,,,,,,57.354498133303906,None,u,0.12381970003480092,57.35481059999438,None,57.35481059999438,None,,0.2,001,2020_Oct_19_1325,temp,2020.1.3,None,
192,0,192,0,,,,,,,57.51438443328564,None,u,0.1398695000098087,57.5128560999874,None,57.5128560999874,None,,0.2,001,2020_Oct_19_1325,temp,2020.1.3,None,
193,0,193,0,,,,,,,57.68783833331739,None,u,0.13434670004062355,57.688733999966644,None,57.688733999966644,None,,0.2,001,2020_Oct_19_1325,temp,2020.1.3,None,
194,0,194,0,,,,,,,57.863319333301234,None,u,0.12844860000768676,57.8639911999926,None,57.8639911999926,None,,0.2,001,2020_Oct_19_1325,temp,2020.1.3,None,
195,0,195,0,,,,,,,58.03479333333283,None,u,0.13444829999934882,58.03378979995614,None,58.03378979995614,None,,0.2,001,2020_Oct_19_1325,temp,2020.1.3,None,
196,0,196,0,,,,,,,58.22202193330352,None,u,0.12696369999321178,58.22146979998797,None,58.22146979998797,None,,0.2,001,2020_Oct_19_1325,temp,2020.1.3,None,
197,0,197,0,,,,,,,58.381478333329625,None,u,0.13803199998801574,58.38596639997559,None,58.38596639997559,None,,0.2,001,2020_Oct_19_1325,temp,2020.1.3,None,
198,0,198,0,,,,,,,58.56986183330494,None,u,0.12629179999930784,58.56939889997011,None,58.56939889997011,None,,0.2,001,2020_Oct_19_1325,temp,2020.1.3,None,
199,0,199,0,,,,,,,58.728487933295156,None,u,0.14702780003426597,58.7270149999531,None,58.7270149999531,None,,0.2,001,2020_Oct_19_1325,temp,2020.1.3,None,
200,0,200,0,,,,,,,58.91529163329008,None,u,0.11621970002306625,58.918306899955496,None,58.918306899955496,None,,0.2,001,2020_Oct_19_1325,temp,2020.1.3,None,
201,0,201,0,,,,,,,59.08910863329268,None,u,0.1038218000321649,59.0888103999896,None,59.0888103999896,None,,0.2,001,2020_Oct_19_1325,temp,2020.1.3,None,
202,0,202,0,,,,,,,59.23531703331585,None,u,0.10599589999765158,59.23672269994859,None,59.23672269994859,None,,0.2,001,2020_Oct_19_1325,temp,2020.1.3,None,
203,0,203,0,,,,,,,59.383954133322305,None,u,0.11863190005533397,59.386995999957435,None,59.386995999957435,None,,0.2,001,2020_Oct_19_1325,temp,2020.1.3,None,
204,0,204,0,,,,,,,59.55662123330015,None,u,0.12324769998667762,59.55651699996088,None,59.55651699996088,None,,0.2,001,2020_Oct_19_1325,temp,2020.1.3,None,
205,0,205,0,,,,,,,59.71611053328573,None,u,0.13652350002666935,59.715786599961575,None,59.715786599961575,None,,0.2,001,2020_Oct_19_1325,temp,2020.1.3,None,
206,0,206,0,,,,,,,59.88893553330175,None,u,0.12803810002515092,59.8887574999826,None,59.8887574999826,None,,0.2,001,2020_Oct_19_1325,temp,2020.1.3,None,
207,0,207,0,,,,,,,60.04893843329822,None,u,0.14137809997191653,60.048753099981695,None,60.048753099981695,None,,0.2,001,2020_Oct_19_1325,temp,2020.1.3,None,
208,0,208,0,,,,,,,60.23561353330345,None,u,0.11711500003002584,60.23654059995897,None,60.23654059995897,None,,0.2,001,2020_Oct_19_1325,temp,2020.1.3,None,
209,0,209,0,,,,,,,60.39637713332971,None,u,0.14283299999078736,60.39518189994851,None,60.39518189994851,None,,0.2,001,2020_Oct_19_1325,temp,2020.1.3,None,
210,0,210,0,,,,,,,60.58241203329138,None,u,0.13112619996536523,60.58232109999517,None,60.58232109999517,None,,0.2,001,2020_Oct_19_1325,temp,2020.1.3,None,
211,0,211,0,,,,,,,60.76909683331226,None,u,0.12946399999782443,60.76901079999516,None,60.76901079999516,None,,0.2,001,2020_Oct_19_1325,temp,2020.1.3,None,
212,0,212,0,,,,,,,60.94253893331236,None,u,0.12321089999750257,60.94351189996814,None,60.94351189996814,None,,0.2,001,2020_Oct_19_1325,temp,2020.1.3,None,
213,0,213,0,,,,,,,61.10437973333367,None,u,0.1282090999884531,61.10424279997824,None,61.10424279997824,None,,0.2,001,2020_Oct_19_1325,temp,2020.1.3,None,
214,0,214,0,,,,,,,61.27587423328853,None,u,0.11994380003307015,61.27519749995554,None,61.27519749995554,None,,0.2,001,2020_Oct_19_1325,temp,2020.1.3,None,
215,0,215,0,,,,,,,61.43607373332682,None,u,0.09142690000589937,61.43673819996184,None,61.43673819996184,None,,0.2,001,2020_Oct_19_1325,temp,2020.1.3,None,
216,0,216,0,,,,,,,61.5692865332899,None,u,0.2765034000040032,61.56751209998038,None,61.56751209998038,None,,0.2,001,2020_Oct_19_1325,temp,2020.1.3,None,
217,0,217,0,,,,,,,61.90349723329612,None,u,0.10154579998925328,61.902856899949256,None,61.902856899949256,None,,0.2,001,2020_Oct_19_1325,temp,2020.1.3,None,
218,0,218,0,,,,,,,62.03714063327837,None,u,0.10470989998430014,62.03523729997687,None,62.03523729997687,None,,0.2,001,2020_Oct_19_1325,temp,2020.1.3,None,
219,0,219,0,,,,,,,62.1830689333224,None,u,0.12523189996136352,62.182696599978954,None,62.182696599978954,None,,0.2,001,2020_Oct_19_1325,temp,2020.1.3,None,
220,0,220,0,,,,,,,62.34301753331286,None,u,0.11187030002474785,62.3424441999523,None,62.3424441999523,None,,0.2,001,2020_Oct_19_1325,temp,2020.1.3,None,
221,0,221,0,,,,,,,62.50321603328533,None,u,0.10658969997894019,62.503955799969845,None,62.503955799969845,None,,0.2,001,2020_Oct_19_1325,temp,2020.1.3,None,
222,0,222,0,,,,,,,62.649933033281314,None,u,0.09658500005025417,62.65225789998658,None,62.65225789998658,None,,0.2,001,2020_Oct_19_1325,temp,2020.1.3,None,
223,0,223,0,,,,,,,62.78444213327796,None,u,0.09754359995713457,62.786703899968415,None,62.786703899968415,None,,0.2,001,2020_Oct_19_1325,temp,2020.1.3,None,
224,0,224,0,,,,,,,62.91763633333224,None,u,0.06889940000837669,62.921873199986294,None,62.921873199986294,None,,0.2,001,2020_Oct_19_1325,temp,2020.1.3,None,
225,0,225,0,,,,,,,63.02350633330255,None,u,0.12043120001908392,63.031317199987825,None,63.031317199987825,None,,0.2,001,2020_Oct_19_1325,temp,2020.1.3,None,
226,0,226,0,,,,,,,63.18514163333069,None,u,0.041507999994792044,63.1901715999702,None,63.1901715999702,None,,0.2,001,2020_Oct_19_1325,temp,2020.1.3,None,
227,0,227,0,,,,,,,63.26339163329297,None,u,0.048683199973311275,63.26621269999305,None,63.26621269999305,None,,0.2,001,2020_Oct_19_1325,temp,2020.1.3,None,
228,0,228,0,,,,,,,63.35687323328651,None,u,0.02575500000966713,63.36407459998736,None,63.36407459998736,None,,0.2,001,2020_Oct_19_1325,temp,2020.1.3,None,
229,0,229,0,,,,,,,63.42339643330391,None,u,0.06541429995559156,63.42470689996844,None,63.42470689996844,None,,0.2,001,2020_Oct_19_1325,temp,2020.1.3,None,
230,0,230,0,,,,,,,63.53013843327838,None,u,0.04124930000398308,63.53474939998705,None,63.53474939998705,None,,0.2,001,2020_Oct_19_1325,temp,2020.1.3,None,
231,0,231,0,,,,,,,63.60992923333154,None,u,0.0496858999831602,63.61462259996915,None,63.61462259996915,None,,0.2,001,2020_Oct_19_1325,temp,2020.1.3,None,
232,0,232,0,,,,,,,63.70357483329329,None,u,0.10837129998253658,63.70893379999325,None,63.70893379999325,None,,0.2,001,2020_Oct_19_1325,temp,2020.1.3,None,
233,0,233,0,,,,,,,63.85240733333242,None,u,0.04119419999187812,63.85758209996857,None,63.85758209996857,None,,0.2,001,2020_Oct_19_1325,temp,2020.1.3,None,
234,0,234,0,,,,,,,63.94366653328373,None,u,0.012650700053200126,63.94901819998631,None,63.94901819998631,None,,0.2,001,2020_Oct_19_1325,temp,2020.1.3,None,
235,0,235,0,,,,,,,63.99865463330255,None,u,0.0552148999995552,64.00559219997376,None,64.00559219997376,None,,0.2,001,2020_Oct_19_1325,temp,2020.1.3,None,
236,0,236,0,,,,,,,64.10359683330947,None,u,0.031913199985865504,64.10590169997886,None,64.10590169997886,None,,0.2,001,2020_Oct_19_1325,temp,2020.1.3,None,
237,0,237,0,,,,,,,64.17075223330951,None,u,0.04784989997278899,64.17924519994995,None,64.17924519994995,None,,0.2,001,2020_Oct_19_1325,temp,2020.1.3,None,
238,0,238,0,,,,,,,64.26370573329817,None,u,0.0402355000260286,64.26840849994915,None,64.26840849994915,None,,0.2,001,2020_Oct_19_1325,temp,2020.1.3,None,
239,0,239,0,,,,,,,64.34555123328076,None,u,0.0382367999991402,64.35524439997971,None,64.35524439997971,None,,0.2,001,2020_Oct_19_1325,temp,2020.1.3,None,
240,0,240,0,,,,,,,64.43715503329489,None,u,0.03418499999679625,64.44098849996226,None,64.44098849996226,None,,0.2,001,2020_Oct_19_1325,temp,2020.1.3,None,
241,0,241,0,,,,,,,64.51700283331641,None,u,0.030997699999716133,64.52665019995766,None,64.52665019995766,None,,0.2,001,2020_Oct_19_1325,temp,2020.1.3,None,
242,0,242,0,,,,,,,64.59721563332326,None,u,0.10544489999301732,64.60218929999974,None,64.60218929999974,None,,0.2,001,2020_Oct_19_1325,temp,2020.1.3,None,
243,0,243,0,,,,,,,64.74431223329933,None,u,0.06765300000552088,64.74917639995692,None,64.74917639995692,None,,0.2,001,2020_Oct_19_1325,temp,2020.1.3,None,
244,0,244,0,,,,,,,64.8504695333036,None,u,0.037681100016925484,64.85752869996941,None,64.85752869996941,None,,0.2,001,2020_Oct_19_1325,temp,2020.1.3,None,
245,0,245,0,,,,,,,64.93045933330043,None,u,0.039940299990121275,64.93568039999809,None,64.93568039999809,None,,0.2,001,2020_Oct_19_1325,temp,2020.1.3,None,
246,0,246,0,,,,,,,65.02922459995607,None,u,0.03980229998705909,65.02215959999012,None,65.02215959999012,None,,0.2,001,2020_Oct_19_1325,temp,2020.1.3,None,
247,0,247,0,,,,,,,65.10402033333278,None,u,0.05657770001562312,65.10775809996994,None,65.10775809996994,None,,0.2,001,2020_Oct_19_1325,temp,2020.1.3,None,
248,0,248,0,,,,,,,65.19908423332575,None,u,0.03000690002227202,65.20590469997842,None,65.20590469997842,None,,0.2,001,2020_Oct_19_1325,temp,2020.1.3,None,
249,0,249,0,,,,,,,65.27731343330427,None,u,0.044857900007627904,65.28034999995725,None,65.28034999995725,None,,0.2,001,2020_Oct_19_1325,temp,2020.1.3,None,
250,0,250,0,,,,,,,65.35949923331694,None,u,0.05385500000556931,65.3669799999916,None,65.3669799999916,None,,0.2,001,2020_Oct_19_1325,temp,2020.1.3,None,
251,0,251,0,,,,,,,65.4640713332997,None,u,0.024380699964240193,65.46724049997283,None,65.46724049997283,None,,0.2,001,2020_Oct_19_1325,temp,2020.1.3,None,
252,0,252,0,,,,,,,65.5309417332833,None,u,0.0665024000336416,65.538656299992,None,65.538656299992,None,,0.2,001,2020_Oct_19_1325,temp,2020.1.3,None,
253,0,253,0,,,,,,,65.63757853332984,None,u,0.04966779996175319,65.64280699996743,None,65.64280699996743,None,,0.2,001,2020_Oct_19_1325,temp,2020.1.3,None,
254,0,254,0,,,,,,,65.73238633329359,None,u,0.03530940000200644,65.73934859997826,None,65.73934859997826,None,,0.2,001,2020_Oct_19_1325,temp,2020.1.3,None,
255,0,255,0,,,,,,,65.81096183328967,None,u,0.04833389999112114,65.81641309999395,None,65.81641309999395,None,,0.2,001,2020_Oct_19_1325,temp,2020.1.3,None,
256,0,256,0,,,,,,,65.90600713331563,None,u,0.03500039997743443,65.91591609996976,None,65.91591609996976,None,,0.2,001,2020_Oct_19_1325,temp,2020.1.3,None,
257,0,257,0,,,,,,,65.9845042332968,None,u,0.0430099000222981,65.99301419995027,None,65.99301419995027,None,,0.2,001,2020_Oct_19_1325,temp,2020.1.3,None,
258,0,258,0,,,,,,,66.07952223328951,None,u,0.029118600010406226,66.08854759996757,None,66.08854759996757,None,,0.2,001,2020_Oct_19_1325,temp,2020.1.3,None,
259,0,259,0,,,,,,,66.15773383330864,None,u,0.04659610003000125,66.1633941999753,None,66.1633941999753,None,,0.2,001,2020_Oct_19_1325,temp,2020.1.3,None,
260,0,260,0,,,,,,,66.25121383329,None,u,0.030791199998930097,66.25708679994568,None,66.25708679994568,None,,0.2,001,2020_Oct_19_1325,temp,2020.1.3,None,
261,0,261,0,,,,,,,66.33113933332109,None,u,0.036489800026174635,66.33683519996703,None,66.33683519996703,None,,0.2,001,2020_Oct_19_1325,temp,2020.1.3,None,
262,0,262,0,,,,,,,66.42925139995059,None,u,0.03532419999828562,66.42460579995532,None,66.42460579995532,None,,0.2,001,2020_Oct_19_1325,temp,2020.1.3,None,
263,0,263,0,,,,,,,66.49268073333272,None,u,0.04774429998360574,66.49903809995158,None,66.49903809995158,None,,0.2,001,2020_Oct_19_1325,temp,2020.1.3,None,
264,0,264,0,,,,,,,66.58593483328198,None,u,0.03905949997715652,66.59518709999975,None,66.59518709999975,None,,0.2,001,2020_Oct_19_1325,temp,2020.1.3,None,
265,0,265,0,,,,,,,66.67882623332164,None,u,0.05571760004386306,66.6858104999992,None,66.6858104999992,None,,0.2,001,2020_Oct_19_1325,temp,2020.1.3,None,
266,0,266,0,,,,,,,66.8117543666313,None,u,0.002139299991540611,66.82154379994608,None,66.82154379994608,None,,0.2,001,2020_Oct_19_1325,temp,2020.1.3,None,
267,0,267,0,,,,,,,66.90487713327941,None,u,0.0943830999894999,66.90833979996387,None,66.90833979996387,None,,0.2,001,2020_Oct_19_1325,temp,2020.1.3,None,
268,0,268,0,,,,,,,67.05818589999107,None,u,0.003702900023199618,67.06644319999032,None,67.06644319999032,None,,0.2,001,2020_Oct_19_1325,temp,2020.1.3,None,
269,0,269,0,,,,,,,67.14901626664602,None,u,0.0016562000382691622,67.1605706999544,None,67.1605706999544,None,,0.2,001,2020_Oct_19_1325,temp,2020.1.3,None,
270,0,270,0,,,,,,,67.22723736662107,None,u,0.012288699974305928,67.24200909998035,None,67.24200909998035,None,,0.2,001,2020_Oct_19_1325,temp,2020.1.3,None,
271,0,271,0,,,,,,,67.30747969996882,None,u,0.0215011999825947,67.30830839998089,None,67.30830839998089,None,,0.2,001,2020_Oct_19_1325,temp,2020.1.3,None,
272,0,272,0,,,,,,,67.38819689997472,None,u,0.022949500009417534,67.39742049999768,None,67.39742049999768,None,,0.2,001,2020_Oct_19_1325,temp,2020.1.3,None,
273,0,273,0,,,,,,,67.49529646664547,None,u,0.0791730000055395,67.51234729995485,None,67.51234729995485,None,,0.2,001,2020_Oct_19_1325,temp,2020.1.3,None,
274,0,274,0,,,,,,,67.64317049995297,None,u,0.026813600037712604,67.65345449995948,None,67.65345449995948,None,,0.2,001,2020_Oct_19_1325,temp,2020.1.3,None,
275,0,275,0,,,,,,,67.73712479999521,None,u,0.021241400041617453,67.74399299995275,None,67.74399299995275,None,,0.2,001,2020_Oct_19_1325,temp,2020.1.3,None,
276,0,276,0,,,,,,,67.81399049995234,None,u,0.032971100008580834,67.82032559998333,None,67.82032559998333,None,,0.2,001,2020_Oct_19_1325,temp,2020.1.3,None,
277,0,277,0,,,,,,,67.95924066666436,None,u,0.07409570005256683,67.96922669996275,None,67.96922669996275,None,,0.2,001,2020_Oct_19_1325,temp,2020.1.3,None,
278,0,278,0,,,,,,,68.09424189997371,None,u,0.025834099971689284,68.10411569999997,None,68.10411569999997,None,,0.2,001,2020_Oct_19_1325,temp,2020.1.3,None,
279,0,279,0,,,,,,,68.24288539997069,None,u,0.06263689999468625,68.25309079996077,None,68.25309079996077,None,,0.2,001,2020_Oct_19_1325,temp,2020.1.3,None,
280,0,280,0,,,,,,,68.37529079995583,None,u,0.030602100014220923,68.3749502999708,None,68.3749502999708,None,,0.2,001,2020_Oct_19_1325,temp,2020.1.3,None,
281,0,281,0,,,,,,,68.45609749994473,None,u,0.031156300043221563,68.45416059996933,None,68.45416059996933,None,,0.2,001,2020_Oct_19_1325,temp,2020.1.3,None,
282,0,282,0,,,,,,,68.53533309996128,None,u,0.9871576000005007,68.53292749996763,None,68.53292749996763,None,,0.2,001,2020_Oct_19_1325,temp,2020.1.3,None,
283,0,283,0,,,,,,,69.57614119998179,None,u,0.24116269999649376,69.58600339997793,None,69.58600339997793,None,,0.2,001,2020_Oct_19_1325,temp,2020.1.3,None,
284,0,284,0,,,,,,,69.89596549998969,None,u,0.09529079997446388,69.89062089996878,None,69.89062089996878,None,,0.2,001,2020_Oct_19_1325,temp,2020.1.3,None,
285,0,285,0,,,,,,,70.02607673331707,None,u,0.0876736999489367,70.03512779995799,None,70.03512779995799,None,,0.2,001,2020_Oct_19_1325,temp,2020.1.3,None,
286,0,286,0,,,,,,,70.17776149995625,None,u,0.061230799998156726,70.17190039996058,None,70.17190039996058,None,,0.2,001,2020_Oct_19_1325,temp,2020.1.3,None,
287,0,287,0,,,,,,,70.28258619999978,None,u,0.06060490000527352,70.27977869997267,None,70.27977869997267,None,,0.2,001,2020_Oct_19_1325,temp,2020.1.3,None,
288,0,288,0,,,,,,,70.37288023328486,None,u,0.29927979997592047,70.3819687999785,None,70.3819687999785,None,,0.2,001,2020_Oct_19_1325,temp,2020.1.3,None,
289,0,289,0,,,,,,,70.7194841333044,None,u,0.1291777000296861,70.72553139994852,None,70.72553139994852,None,,0.2,001,2020_Oct_19_1325,temp,2020.1.3,None,
290,0,290,0,,,,,,,70.91071359994821,None,u,0.07540179998613894,70.90693099994678,None,70.90693099994678,None,,0.2,001,2020_Oct_19_1325,temp,2020.1.3,None,
291,0,291,0,,,,,,,71.03194059997331,None,u,0.09532049996778369,71.03151239996077,None,71.03151239996077,None,,0.2,001,2020_Oct_19_1325,temp,2020.1.3,None,
292,0,292,0,,,,,,,71.17634089996572,None,u,0.07097719999728724,71.17785799998092,None,71.17785799998092,None,,0.2,001,2020_Oct_19_1325,temp,2020.1.3,None,
293,0,293,0,,,,,,,71.30986669998383,None,u,0.08577189996140078,71.30547609995119,None,71.30547609995119,None,,0.2,001,2020_Oct_19_1325,temp,2020.1.3,None,
294,0,294,0,,,,,,,71.44302239997778,None,u,0.10525540000526235,71.43668489996344,None,71.43668489996344,None,,0.2,001,2020_Oct_19_1325,temp,2020.1.3,None,
295,0,295,0,,,,,,,71.58644303330996,None,u,0.10706200002459809,71.59615649998887,None,71.59615649998887,None,,0.2,001,2020_Oct_19_1325,temp,2020.1.3,None,
296,0,296,0,,,,,,,71.77959129995433,None,u,0.0658633999992162,71.78987859998597,None,71.78987859998597,None,,0.2,001,2020_Oct_19_1325,temp,2020.1.3,None,
297,0,297,0,,,,,,,71.8934856333149,None,u,0.10282420000294223,71.9045785999624,None,71.9045785999624,None,,0.2,001,2020_Oct_19_1325,temp,2020.1.3,None,
298,0,298,0,,,,,,,72.03992893332227,None,u,0.12089379999088123,72.04919130000053,None,72.04919130000053,None,,0.2,001,2020_Oct_19_1325,temp,2020.1.3,None,
299,0,299,0,,,,,,,72.22740353330349,None,u,0.09360090002883226,72.23464779998176,None,72.23464779998176,None,,0.2,001,2020_Oct_19_1325,temp,2020.1.3,None,
300,0,300,0,,,,,,,72.36287703330939,None,u,0.10298630001489073,72.37446490000002,None,72.37446490000002,None,,0.2,001,2020_Oct_19_1325,temp,2020.1.3,None,
301,0,301,0,,,,,,,72.52122083330372,None,u,0.1084007999743335,72.52787169994554,None,72.52787169994554,None,,0.2,001,2020_Oct_19_1325,temp,2020.1.3,None,
302,0,302,0,,,,,,,72.68019103329473,None,u,0.09331480000400916,72.68663089995971,None,72.68663089995971,None,,0.2,001,2020_Oct_19_1325,temp,2020.1.3,None,
303,0,303,0,,,,,,,72.8149699333085,None,u,0.11195860005682334,72.82448619999923,None,72.82448619999923,None,,0.2,001,2020_Oct_19_1325,temp,2020.1.3,None,
304,0,304,0,,,,,,,72.97439073329636,None,u,0.10543130000587553,72.98265209997771,None,72.98265209997771,None,,0.2,001,2020_Oct_19_1325,temp,2020.1.3,None,
305,0,305,0,,,,,,,73.12039863330622,None,u,0.11957490001805127,73.12992989999475,None,73.12992989999475,None,,0.2,001,2020_Oct_19_1325,temp,2020.1.3,None,
306,0,306,0,,,,,,,73.28134383331829,None,u,0.13342500000726432,73.28738279995741,None,73.28738279995741,None,,0.2,001,2020_Oct_19_1325,temp,2020.1.3,None,
307,0,307,0,,,,,,,73.45361973328593,None,u,0.14448750001611188,73.45909599994775,None,73.45909599994775,None,,0.2,001,2020_Oct_19_1325,temp,2020.1.3,None,
308,0,308,0,,,,,,,73.64062863332995,None,u,0.11790910002309829,73.64659359998768,None,73.64659359998768,None,,0.2,001,2020_Oct_19_1325,temp,2020.1.3,None,
309,0,309,0,,,,,,,73.80043053330931,None,u,0.12225260003469884,73.80557969998335,None,73.80557969998335,None,,0.2,001,2020_Oct_19_1325,temp,2020.1.3,None,
310,0,310,0,,,,,,,73.9738209333232,None,u,0.092528700013645,73.98138429998653,None,73.98138429998653,None,,0.2,001,2020_Oct_19_1325,temp,2020.1.3,None,
311,0,311,0,,,,,,,74.10743523331669,None,u,0.11393900000257418,74.11488839995582,None,74.11488839995582,None,,0.2,001,2020_Oct_19_1325,temp,2020.1.3,None,
312,0,312,0,,,,,,,74.26760863333087,None,u,0.1181635000393726,74.27442899998277,None,74.27442899998277,None,,0.2,001,2020_Oct_19_1325,temp,2020.1.3,None,
313,0,313,0,,,,,,,74.44195433328471,None,u,0.10362599999643862,74.44789569999557,None,74.44789569999557,None,,0.2,001,2020_Oct_19_1325,temp,2020.1.3,None,
314,0,314,0,,,,,,,74.58835653332838,None,u,0.12330820003990084,74.59291809995193,None,74.59291809995193,None,,0.2,001,2020_Oct_19_1325,temp,2020.1.3,None,
315,0,315,0,,,,,,,74.77423523332303,None,u,0.09295880002900958,74.77839739999035,None,74.77839739999035,None,,0.2,001,2020_Oct_19_1325,temp,2020.1.3,None,
316,0,316,0,,,,,,,74.90859733330629,None,u,0.11665280000306666,74.91297939996002,None,74.91297939996002,None,,0.2,001,2020_Oct_19_1325,temp,2020.1.3,None,
317,0,317,0,,,,,,,75.06770833332169,None,u,0.12124360003508627,75.07001259998651,None,75.07001259998651,None,,0.2,001,2020_Oct_19_1325,temp,2020.1.3,None,
318,0,318,0,,,,,,,75.22752383328819,None,u,0.13113069999963045,75.231638199999,None,75.231638199999,None,,0.2,001,2020_Oct_19_1325,temp,2020.1.3,None,
319,0,319,0,,,,,,,75.40086563328126,None,u,0.11153200000990182,75.40603789995657,None,75.40603789995657,None,,0.2,001,2020_Oct_19_1325,temp,2020.1.3,None,
320,0,320,0,,,,,,,75.5610259333121,None,u,0.11927269998705015,75.56348039995646,None,75.56348039995646,None,,0.2,001,2020_Oct_19_1325,temp,2020.1.3,None,
321,0,321,0,,,,,,,75.7223058333116,None,u,0.11795829999027774,75.72695179999573,None,75.72695179999573,None,,0.2,001,2020_Oct_19_1325,temp,2020.1.3,None,
322,0,322,0,,,,,,,75.88169663330385,None,u,0.1093072000076063,75.88422999996692,None,75.88422999996692,None,,0.2,001,2020_Oct_19_1325,temp,2020.1.3,None,
323,0,323,0,,,,,,,76.02819213330125,None,u,0.11989610001910478,76.03139739995822,None,76.03139739995822,None,,0.2,001,2020_Oct_19_1325,temp,2020.1.3,None,
324,0,324,0,,,,,,,76.18797223328923,None,u,0.12051159999100491,76.19270559999859,None,76.19270559999859,None,,0.2,001,2020_Oct_19_1325,temp,2020.1.3,None,
325,0,325,0,,,,,,,76.36570659996941,None,u,0.11636939999880269,76.36209839995718,None,76.36209839995718,None,,0.2,001,2020_Oct_19_1325,temp,2020.1.3,None,
326,0,326,0,,,,,,,76.52333343332478,None,u,0.10135939996689558,76.53213219996542,None,76.53213219996542,None,,0.2,001,2020_Oct_19_1325,temp,2020.1.3,None,
327,0,327,0,,,,,,,76.66924143333065,None,u,0.09558650001417845,76.67698959994595,None,76.67698959994595,None,,0.2,001,2020_Oct_19_1325,temp,2020.1.3,None,
328,0,328,0,,,,,,,76.81518213329448,None,u,0.12645270000211895,76.82301019999431,None,76.82301019999431,None,,0.2,001,2020_Oct_19_1325,temp,2020.1.3,None,
329,0,329,0,,,,,,,76.99012733333123,None,u,0.11285829998087138,76.99912839999888,None,76.99912839999888,None,,0.2,001,2020_Oct_19_1325,temp,2020.1.3,None,
330,0,330,0,,,,,,,77.14935053332786,None,u,0.11760040000081062,77.15641289995983,None,77.15641289995983,None,,0.2,001,2020_Oct_19_1325,temp,2020.1.3,None,
331,0,331,0,,,,,,,77.32186223328657,None,u,0.09451029996853322,77.32638389995554,None,77.32638389995554,None,,0.2,001,2020_Oct_19_1325,temp,2020.1.3,None,
332,0,332,0,,,,,,,77.4684531333119,None,u,0.10025129996938631,77.47384039999451,None,77.47384039999451,None,,0.2,001,2020_Oct_19_1325,temp,2020.1.3,None,
333,0,333,0,,,,,,,77.61534873332906,None,u,0.10300040000583977,77.62069699994754,None,77.62069699994754,None,,0.2,001,2020_Oct_19_1325,temp,2020.1.3,None,
334,0,334,0,,,,,,,77.76210773329561,None,u,0.1105404999689199,77.76684419997036,None,77.76684419997036,None,,0.2,001,2020_Oct_19_1325,temp,2020.1.3,None,
335,0,335,0,,,,,,,77.95220439998666,None,u,0.08450040000025183,77.94631289999234,None,77.94631289999234,None,,0.2,001,2020_Oct_19_1325,temp,2020.1.3,None,
336,0,336,0,,,,,,,78.08904689999763,None,u,0.10074690001783893,78.08395739999833,None,78.08395739999833,None,,0.2,001,2020_Oct_19_1325,temp,2020.1.3,None,
337,0,337,0,,,,,,,78.23556889996398,None,u,0.11110959999496117,78.23277199995937,None,78.23277199995937,None,,0.2,001,2020_Oct_19_1325,temp,2020.1.3,None,
338,0,338,0,,,,,,,78.37678653328524,None,u,0.11415509996004403,78.38657629996305,None,78.38657629996305,None,,0.2,001,2020_Oct_19_1325,temp,2020.1.3,None,
339,0,339,0,,,,,,,78.53689363331844,None,u,0.11208029999397695,78.54639049997786,None,78.54639049997786,None,,0.2,001,2020_Oct_19_1325,temp,2020.1.3,None,
340,0,340,0,,,,,,,78.69685053331389,None,u,0.12411600002087653,78.70467899995856,None,78.70467899995856,None,,0.2,001,2020_Oct_19_1325,temp,2020.1.3,None,
341,0,341,0,,,,,,,78.88656549995066,None,u,0.10546250001061708,78.88850909995381,None,78.88850909995381,None,,0.2,001,2020_Oct_19_1325,temp,2020.1.3,None,
342,0,342,0,,,,,,,79.02926903329401,None,u,0.13349129998823628,79.03526249999413,None,79.03526249999413,None,,0.2,001,2020_Oct_19_1325,temp,2020.1.3,None,
343,0,343,0,,,,,,,79.20249193331304,None,u,0.15160300000570714,79.20736739999847,None,79.20736739999847,None,,0.2,001,2020_Oct_19_1325,temp,2020.1.3,None,
344,0,344,0,,,,,,,79.40249333327714,None,u,0.09119059995282441,79.40603949996876,None,79.40603949996876,None,,0.2,001,2020_Oct_19_1325,temp,2020.1.3,None,
345,0,345,0,,,,,,,79.5358539333179,None,u,0.13149620004696772,79.54012579994742,None,79.54012579994742,None,,0.2,001,2020_Oct_19_1325,temp,2020.1.3,None,
346,0,346,0,,,,,,,79.71012243332419,None,u,0.12480729998787865,79.71464409999317,None,79.71464409999317,None,,0.2,001,2020_Oct_19_1325,temp,2020.1.3,None,
347,0,347,0,,,,,,,79.8827932333302,None,u,0.12193039996782318,79.88464259996545,None,79.88464259996545,None,,0.2,001,2020_Oct_19_1325,temp,2020.1.3,None,
348,0,348,0,,,,,,,80.04260233330618,None,u,0.13505070004612207,80.04571969999233,None,80.04571969999233,None,,0.2,001,2020_Oct_19_1325,temp,2020.1.3,None,
349,0,349,0,,,,,,,80.21621483332322,None,u,0.14957159996265545,80.21812189999036,None,80.21812189999036,None,,0.2,001,2020_Oct_19_1325,temp,2020.1.3,None,
350,0,350,0,,,,,,,80.41753563332216,None,u,0.10302789998240769,80.41977279999992,None,80.41977279999992,None,,0.2,001,2020_Oct_19_1325,temp,2020.1.3,None,
351,0,351,0,,,,,,,80.56338663330146,None,u,0.13830819999566302,80.56643359997543,None,80.56643359997543,None,,0.2,001,2020_Oct_19_1325,temp,2020.1.3,None,
352,0,352,0,,,,,,,80.74964053330089,None,u,0.10452669998630881,80.75350059999619,None,80.75350059999619,None,,0.2,001,2020_Oct_19_1325,temp,2020.1.3,None,
353,0,353,0,,,,,,,80.89641523332878,None,u,0.14846599998418242,80.8995551999542,None,80.8995551999542,None,,0.2,001,2020_Oct_19_1325,temp,2020.1.3,None,
354,0,354,0,,,,,,,81.08333053330037,None,u,0.12407149997306988,81.09075579995988,None,81.09075579995988,None,,0.2,001,2020_Oct_19_1325,temp,2020.1.3,None,
355,0,355,0,,,,,,,81.25648703327946,None,u,0.14984979998553172,81.26051919994643,None,81.26051919994643,None,,0.2,001,2020_Oct_19_1325,temp,2020.1.3,None,
356,0,356,0,,,,,,,81.44369443332155,None,u,0.12444410001626238,81.44745229999535,None,81.44745229999535,None,,0.2,001,2020_Oct_19_1325,temp,2020.1.3,None,
357,0,357,0,,,,,,,81.61664013332532,None,u,0.11189800000283867,81.62282749998849,None,81.62282749998849,None,,0.2,001,2020_Oct_19_1325,temp,2020.1.3,None,
358,0,358,0,,,,,,,81.7767837332872,None,u,0.11783559998730198,81.78300299996044,None,81.78300299996044,None,,0.2,001,2020_Oct_19_1325,temp,2020.1.3,None,
359,0,359,0,,,,,,,81.95027973329027,None,u,0.10989899997366592,81.95712729997467,None,81.95712729997467,None,,0.2,001,2020_Oct_19_1325,temp,2020.1.3,None,
360,0,360,0,,,,,,,82.11039913330072,None,u,0.11619919998338446,82.11919939995278,None,82.11919939995278,None,,0.2,001,2020_Oct_19_1325,temp,2020.1.3,None,
361,0,361,0,,,,,,,82.28424873331872,None,u,0.10693320003338158,82.28834339999594,None,82.28834339999594,None,,0.2,001,2020_Oct_19_1325,temp,2020.1.3,None,
362,0,362,0,,,,,,,82.46596726666127,None,u,0.09051850001560524,82.46842209994793,None,82.46842209994793,None,,0.2,001,2020_Oct_19_1325,temp,2020.1.3,None,
363,0,363,0,,,,,,,82.6104298999533,None,u,0.11472780001349747,82.60501479997765,None,82.60501479997765,None,,0.2,001,2020_Oct_19_1325,temp,2020.1.3,None,
364,0,364,0,,,,,,,82.76474553329948,None,u,0.11745590000646189,82.77273279998917,None,82.77273279998917,None,,0.2,001,2020_Oct_19_1325,temp,2020.1.3,None,
365,0,365,0,,,,,,,82.94035049994709,None,u,0.12454520002938807,82.93599909998011,None,82.93599909998011,None,,0.2,001,2020_Oct_19_1325,temp,2020.1.3,None,
366,0,366,0,,,,,,,83.09730723332225,None,u,0.12046030000783503,83.10563899995759,None,83.10563899995759,None,,0.2,001,2020_Oct_19_1325,temp,2020.1.3,None,
367,0,367,0,,,,,,,83.2707272333287,None,u,0.11277040001004934,83.27753619995201,None,83.27753619995201,None,,0.2,001,2020_Oct_19_1325,temp,2020.1.3,None,
368,0,368,0,,,,,,,83.43099513330574,None,u,0.11783030000515282,83.43746589997318,None,83.43746589997318,None,,0.2,001,2020_Oct_19_1325,temp,2020.1.3,None,
369,0,369,0,,,,,,,83.59068443330082,None,u,0.11866899998858571,83.59552449994953,None,83.59552449994953,None,,0.2,001,2020_Oct_19_1325,temp,2020.1.3,None,
370,0,370,0,,,,,,,83.76400403329947,None,u,0.10469260002719238,83.76933689997531,None,83.76933689997531,None,,0.2,001,2020_Oct_19_1325,temp,2020.1.3,None,
371,0,371,0,,,,,,,83.91205513332582,None,u,0.1308773999917321,83.91641619999427,None,83.91641619999427,None,,0.2,001,2020_Oct_19_1325,temp,2020.1.3,None,
372,0,372,0,,,,,,,84.09761703329471,None,u,0.11235599999781698,84.1011774999788,None,84.1011774999788,None,,0.2,001,2020_Oct_19_1325,temp,2020.1.3,None,
373,0,373,0,,,,,,,84.25761943328737,None,u,0.15710309997666627,84.2602752999519,None,84.2602752999519,None,,0.2,001,2020_Oct_19_1325,temp,2020.1.3,None,
374,0,374,0,,,,,,,84.45780053328102,None,u,0.11019960005069152,84.4651311999769,None,84.4651311999769,None,,0.2,001,2020_Oct_19_1325,temp,2020.1.3,None,
375,0,375,0,,,,,,,84.63161953329885,None,u,0.10701589996460825,84.63447619997896,None,84.63447619997896,None,,0.2,001,2020_Oct_19_1325,temp,2020.1.3,None,
376,0,376,0,,,,,,,84.778467033299,None,u,0.13097170001128688,84.77984679996734,None,84.77984679996734,None,,0.2,001,2020_Oct_19_1325,temp,2020.1.3,None,
377,0,377,0,,,,,,,84.95130883332652,None,u,0.13054700003704056,84.95436139998492,None,84.95436139998492,None,,0.2,001,2020_Oct_19_1325,temp,2020.1.3,None,
378,0,378,0,,,,,,,85.12465903332534,None,u,0.1268605999648571,85.1276490999735,None,85.1276490999735,None,,0.2,001,2020_Oct_19_1325,temp,2020.1.3,None,
379,0,379,0,,,,,,,85.31156773330488,None,u,0.10953810001956299,85.31707799999276,None,85.31707799999276,None,,0.2,001,2020_Oct_19_1325,temp,2020.1.3,None,
380,0,380,0,,,,,,,85.45909833332601,None,u,0.13589420000789687,85.46280319994548,None,85.46280319994548,None,,0.2,001,2020_Oct_19_1325,temp,2020.1.3,None,
381,0,381,0,,,,,,,85.64482413332055,None,u,0.11485890002222732,85.64687929995125,None,85.64687929995125,None,,0.2,001,2020_Oct_19_1325,temp,2020.1.3,None,
382,0,382,0,,,,,,,85.80552413332819,None,u,0.15406319999601692,85.80752849997953,None,85.80752849997953,None,,0.2,001,2020_Oct_19_1325,temp,2020.1.3,None,
383,0,383,0,,,,,,,86.00484983332765,None,u,0.1174363000318408,86.00787259999197,None,86.00787259999197,None,,0.2,001,2020_Oct_19_1325,temp,2020.1.3,None,
384,0,384,0,,,,,,,86.17938163330157,None,u,0.11322780000045896,86.18112409999594,None,86.18112409999594,None,,0.2,001,2020_Oct_19_1325,temp,2020.1.3,None,
385,0,385,0,,,,,,,86.32591903332698,None,u,0.15011270000832155,86.32880549994297,None,86.32880549994297,None,,0.2,001,2020_Oct_19_1325,temp,2020.1.3,None,
386,0,386,0,,,,,,,86.5126896333027,None,u,0.14520149998134002,86.51637059997302,None,86.51637059997302,None,,0.2,001,2020_Oct_19_1325,temp,2020.1.3,None,
387,0,387,0,,,,,,,86.71234713332572,None,u,0.12047339999116957,86.71944459999213,None,86.71944459999213,None,,0.2,001,2020_Oct_19_1325,temp,2020.1.3,None,
388,0,388,0,,,,,,,86.87294983329096,None,u,0.12456720002228394,86.87919149996014,None,86.87919149996014,None,,0.2,001,2020_Oct_19_1325,temp,2020.1.3,None,
389,0,389,0,,,,,,,87.04631953332185,None,u,0.12317209999309853,87.05105009995168,None,87.05105009995168,None,,0.2,001,2020_Oct_19_1325,temp,2020.1.3,None,
390,0,390,0,,,,,,,87.20559833327619,None,u,0.13385350001044571,87.21012399997562,None,87.21012399997562,None,,0.2,001,2020_Oct_19_1325,temp,2020.1.3,None,
391,0,391,0,,,,,,,87.39248973329862,None,u,0.12547829997492954,87.39778469997691,None,87.39778469997691,None,,0.2,001,2020_Oct_19_1325,temp,2020.1.3,None,
392,0,392,0,,,,,,,87.56550113327879,None,u,0.11679840000579134,87.56909469998209,None,87.56909469998209,None,,0.2,001,2020_Oct_19_1325,temp,2020.1.3,None,
393,0,393,0,,,,,,,87.72638743330802,None,u,0.12664039997616783,87.72881649999181,None,87.72881649999181,None,,0.2,001,2020_Oct_19_1325,temp,2020.1.3,None,
394,0,394,0,,,,,,,87.89876993333067,None,u,0.12359209998976439,87.90354589995695,None,87.90354589995695,None,,0.2,001,2020_Oct_19_1325,temp,2020.1.3,None,
395,0,395,0,,,,,,,88.05920643331095,None,u,0.17102080001495779,88.06215319997864,None,88.06215319997864,None,,0.2,001,2020_Oct_19_1325,temp,2020.1.3,None,
396,0,396,0,,,,,,,88.27257403330489,None,u,0.12571120000211522,88.27645369997481,None,88.27645369997481,None,,0.2,001,2020_Oct_19_1325,temp,2020.1.3,None,
397,0,397,0,,,,,,,88.45928673330539,None,u,0.12782730004983023,88.46399299998302,None,88.46399299998302,None,,0.2,001,2020_Oct_19_1325,temp,2020.1.3,None,
398,0,398,0,,,,,,,88.6327275332956,None,u,0.11983169999439269,88.63566679996438,None,88.63566679996438,None,,0.2,001,2020_Oct_19_1325,temp,2020.1.3,None,
399,0,399,0,,,,,,,88.80932149996515,None,u,0.10099750000517815,88.80576759995893,None,88.80576759995893,None,,0.2,001,2020_Oct_19_1325,temp,2020.1.3,None,
400,0,400,0,,,,,,,88.93951353332571,None,u,0.1307158999843523,88.94520849996479,None,88.94520849996479,None,,0.2,001,2020_Oct_19_1325,temp,2020.1.3,None,
401,0,401,0,,,,,,,89.12623223331369,None,u,0.1277968999929726,89.13107629999286,None,89.13107629999286,None,,0.2,001,2020_Oct_19_1325,temp,2020.1.3,None,
402,0,402,0,,,,,,,89.29955263331843,None,u,0.1461600000038743,89.30384799995227,None,89.30384799995227,None,,0.2,001,2020_Oct_19_1325,temp,2020.1.3,None,
403,0,403,0,,,,,,,89.48616773333245,None,u,0.1775583999697119,89.49002979998477,None,89.49002979998477,None,,0.2,001,2020_Oct_19_1325,temp,2020.1.3,None,
404,0,404,0,,,,,,,89.70156123332757,None,u,0.1534512999933213,89.70363489998272,None,89.70363489998272,None,,0.2,001,2020_Oct_19_1325,temp,2020.1.3,None,
405,0,405,0,,,,,,,89.89968123328484,None,u,0.15081140003167093,89.90298429998802,None,89.90298429998802,None,,0.2,001,2020_Oct_19_1325,temp,2020.1.3,None,
406,0,406,0,,,,,,,90.08652693330853,None,u,0.16019039996899664,90.09003249998204,None,90.09003249998204,None,,0.2,001,2020_Oct_19_1325,temp,2020.1.3,None,
407,0,407,0,,,,,,,90.28708953329672,None,u,0.15236330003244802,90.28919559996575,None,90.28919559996575,None,,0.2,001,2020_Oct_19_1325,temp,2020.1.3,None,
408,0,408,0,,,,,,,90.47333223332728,None,u,0.19793680001748726,90.47524899995187,None,90.47524899995187,None,,0.2,001,2020_Oct_19_1325,temp,2020.1.3,None,
409,0,409,0,,,,,,,90.71353173332366,None,u,0.16223509999690577,90.71598929999163,None,90.71598929999163,None,,0.2,001,2020_Oct_19_1325,temp,2020.1.3,None,
410,0,410,0,,,,,,,90.91342463327649,None,u,0.15810930001316592,90.91698319994612,None,90.91698319994612,None,,0.2,001,2020_Oct_19_1325,temp,2020.1.3,None,
411,0,411,0,,,,,,,91.11332143331722,None,u,0.13628510001581162,91.11820789997,None,91.11820789997,None,,0.2,001,2020_Oct_19_1325,temp,2020.1.3,None,
412,0,412,0,,,,,,,91.28745313332959,None,u,0.14481670001987368,91.2905392999528,None,91.2905392999528,None,,0.2,001,2020_Oct_19_1325,temp,2020.1.3,None,
413,0,413,0,,,,,,,91.47369663330804,None,u,0.12443840003106743,91.47765489999438,None,91.47765489999438,None,,0.2,001,2020_Oct_19_1325,temp,2020.1.3,None,
414,0,414,0,,,,,,,91.63352953329061,None,u,0.15849170001456514,91.63964059995487,None,91.63964059995487,None,,0.2,001,2020_Oct_19_1325,temp,2020.1.3,None,
415,0,415,0,,,,,,,91.87322916662475,None,u,0.0807061999803409,91.88570629997412,None,91.88570629997412,None,,0.2,001,2020_Oct_19_1325,temp,2020.1.3,None,
416,0,416,0,,,,,,,92.03585956666308,None,u,0.09214919997612014,92.04107679997105,None,92.04107679997105,None,,0.2,001,2020_Oct_19_1325,temp,2020.1.3,None,
417,0,417,0,,,,,,,92.20304036665863,None,u,0.10386220004875213,92.20136389997788,None,92.20136389997788,None,,0.2,001,2020_Oct_19_1325,temp,2020.1.3,None,
418,0,418,0,,,,,,,92.37300689996918,None,u,0.10749290004605427,92.3766459999606,None,92.3766459999606,None,,0.2,001,2020_Oct_19_1325,temp,2020.1.3,None,
419,0,419,0,,,,,,,92.53391189996618,None,u,0.14500349998706952,92.53860549995443,None,92.53860549995443,None,,0.2,001,2020_Oct_19_1325,temp,2020.1.3,None,
420,0,420,0,,,,,,,92.73434199999319,None,u,0.11827410000842065,92.74497859994881,None,92.74497859994881,None,,0.2,001,2020_Oct_19_1325,temp,2020.1.3,None,
421,0,421,0,,,,,,,92.93086539995856,None,u,0.11698739998973906,92.92962039995473,None,92.92962039995473,None,,0.2,001,2020_Oct_19_1325,temp,2020.1.3,None,
422,0,422,0,,,,,,,93.08764723328252,None,u,0.1410399999585934,93.09747569996398,None,93.09747569996398,None,,0.2,001,2020_Oct_19_1325,temp,2020.1.3,None,
423,0,423,0,,,,,,,93.2876078332852,None,u,0.12963129999116063,93.29607589996886,None,93.29607589996886,None,,0.2,001,2020_Oct_19_1325,temp,2020.1.3,None,
424,0,424,0,,,,,,,93.4610429332902,None,u,0.11969119997229427,93.46839369996451,None,93.46839369996451,None,,0.2,001,2020_Oct_19_1325,temp,2020.1.3,None,
425,0,425,0,,,,,,,93.62174343330165,None,u,0.17811019998043776,93.62547329999506,None,93.62547329999506,None,,0.2,001,2020_Oct_19_1325,temp,2020.1.3,None,
426,0,426,0,,,,,,,93.85341489997226,None,u,0.13571020000381395,93.8600618999917,None,93.8600618999917,None,,0.2,001,2020_Oct_19_1325,temp,2020.1.3,None,
427,0,427,0,,,,,,,94.05168929999927,None,u,0.9573074000072666,94.05715459998464,None,94.05715459998464,None,,0.2,001,2020_Oct_19_1325,temp,2020.1.3,None,
428,0,428,0,,,,,,,95.04834983329832,None,u,0.233375400013756,95.05288759997347,None,95.05288759997347,None,,0.2,001,2020_Oct_19_1325,temp,2020.1.3,None,
429,0,429,0,,,,,,,95.33022783330719,None,u,0.22515100002055988,95.33847079996485,None,95.33847079996485,None,,0.2,001,2020_Oct_19_1325,temp,2020.1.3,None,
430,0,430,0,,,,,,,95.61263429997489,None,u,0.11848020000616089,95.61262739996891,None,95.61262739996891,None,,0.2,001,2020_Oct_19_1325,temp,2020.1.3,None,
431,0,431,0,,,,,,,95.76854933327607,None,u,0.12246179999783635,95.77352749998681,None,95.77352749998681,None,,0.2,001,2020_Oct_19_1325,temp,2020.1.3,None,
432,0,432,0,,,,,,,95.92953313329102,None,u,0.11897220002720132,95.93501249997644,None,95.93501249997644,None,,0.2,001,2020_Oct_19_1325,temp,2020.1.3,None,
433,0,433,0,,,,,,,96.10199183331181,None,u,0.10579339996911585,96.10491799999727,None,96.10491799999727,None,,0.2,001,2020_Oct_19_1325,temp,2020.1.3,None,
434,0,434,0,,,,,,,96.24879353331247,None,u,0.11553399998228997,96.2581464999821,None,96.2581464999821,None,,0.2,001,2020_Oct_19_1325,temp,2020.1.3,None,
435,0,435,0,,,,,,,96.42560109997866,None,u,0.11041819996898994,96.42621359997429,None,96.42621359997429,None,,0.2,001,2020_Oct_19_1325,temp,2020.1.3,None,
436,0,436,0,,,,,,,96.56896533328884,None,u,0.1243306000251323,96.5776866999804,None,96.5776866999804,None,,0.2,001,2020_Oct_19_1325,temp,2020.1.3,None,
437,0,437,0,,,,,,,96.74237613328344,None,u,0.11211009998805821,96.7499616999994,None,96.7499616999994,None,,0.2,001,2020_Oct_19_1325,temp,2020.1.3,None,
438,0,438,0,,,,,,,96.91923159996513,None,u,0.09277380001731217,96.91475039999932,None,96.91475039999932,None,,0.2,001,2020_Oct_19_1325,temp,2020.1.3,None,
439,0,439,0,,,,,,,97.06569009997183,None,u,0.11493120004888624,97.06215619994327,None,97.06215619994327,None,,0.2,001,2020_Oct_19_1325,temp,2020.1.3,None,
440,0,440,0,,,,,,,97.23886059999931,None,u,0.1057132999994792,97.23893870000029,None,97.23893870000029,None,,0.2,001,2020_Oct_19_1325,temp,2020.1.3,None,
441,0,441,0,,,,,,,97.40377689998131,None,u,0.10232489998452365,97.40210329997353,None,97.40210329997353,None,,0.2,001,2020_Oct_19_1325,temp,2020.1.3,None,
442,0,442,0,,,,,,,97.54360833328295,None,u,0.12067929998738691,97.5508523999597,None,97.5508523999597,None,,0.2,001,2020_Oct_19_1325,temp,2020.1.3,None,
443,0,443,0,,,,,,,97.71580423328172,None,u,0.11094619997311383,97.72352859994862,None,97.72352859994862,None,,0.2,001,2020_Oct_19_1325,temp,2020.1.3,None,
444,0,444,0,,,,,,,97.87595423329233,None,u,0.10836610000114888,97.88320509996265,None,97.88320509996265,None,,0.2,001,2020_Oct_19_1325,temp,2020.1.3,None,
445,0,445,0,,,,,,,98.04937023332653,None,u,0.10254839999834076,98.05434939998668,None,98.05434939998668,None,,0.2,001,2020_Oct_19_1325,temp,2020.1.3,None,
446,0,446,0,,,,,,,98.19616343332066,None,u,0.12211269995896146,98.1987338999752,None,98.1987338999752,None,,0.2,001,2020_Oct_19_1325,temp,2020.1.3,None,
447,0,447,0,,,,,,,98.35603553331069,None,u,0.12353839998831972,98.35967729997355,None,98.35967729997355,None,,0.2,001,2020_Oct_19_1325,temp,2020.1.3,None,
448,0,448,0,,,,,,,98.51629023330364,None,u,0.12448759999824688,98.52293339994503,None,98.52293339994503,None,,0.2,001,2020_Oct_19_1325,temp,2020.1.3,None,
449,0,449,0,,,,,,,98.70661939996062,None,u,0.10388589999638498,98.70208099996671,None,98.70208099996671,None,,0.2,001,2020_Oct_19_1325,temp,2020.1.3,None,
450,0,450,0,,,,,,,98.84971383331188,None,u,0.10771270003169775,98.85651519999374,None,98.85651519999374,None,,0.2,001,2020_Oct_19_1325,temp,2020.1.3,None,
451,0,451,0,,,,,,,98.99645123328858,None,u,0.1313920000102371,98.99969129997771,None,98.99969129997771,None,,0.2,001,2020_Oct_19_1325,temp,2020.1.3,None,
452,0,452,0,,,,,,,99.18313973327943,None,u,0.09617070003878325,99.1889110999764,None,99.1889110999764,None,,0.2,001,2020_Oct_19_1325,temp,2020.1.3,None,
453,0,453,0,,,,,,,99.32980153332076,None,u,0.11576509999576956,99.3315300999675,None,99.3315300999675,None,,0.2,001,2020_Oct_19_1325,temp,2020.1.3,None,
454,0,454,0,,,,,,,99.49131993333188,None,u,0.1084081000299193,99.49258399999235,None,99.49258399999235,None,,0.2,001,2020_Oct_19_1325,temp,2020.1.3,None,
455,0,455,0,,,,,,,99.65105843329414,None,u,0.1047386999707669,99.6532559999614,None,99.6532559999614,None,,0.2,001,2020_Oct_19_1325,temp,2020.1.3,None,
456,0,456,0,,,,,,,99.79674303328696,None,u,0.12304729997413233,99.80433469999116,None,99.80433469999116,None,,0.2,001,2020_Oct_19_1325,temp,2020.1.3,None,
457,0,457,0,,,,,,,99.96992323333009,None,u,0.11974500003270805,99.97404809994623,None,99.97404809994623,None,,0.2,001,2020_Oct_19_1325,temp,2020.1.3,None,
458,0,458,0,,,,,,,100.12988633331454,None,u,0.12130659999093041,100.13239969999995,None,100.13239969999995,None,,0.2,001,2020_Oct_19_1325,temp,2020.1.3,None,
459,0,459,0,,,,,,,100.28998273332448,None,u,0.11749590002000332,100.29246739996597,None,100.29246739996597,None,,0.2,001,2020_Oct_19_1325,temp,2020.1.3,None,
460,0,460,0,,,,,,,100.46379573329662,None,u,0.10579609998967499,100.46555529994657,None,100.46555529994657,None,,0.2,001,2020_Oct_19_1325,temp,2020.1.3,None,
461,0,461,0,,,,,,,100.61030613329106,None,u,0.11841210001148283,100.61180659994716,None,100.61180659994716,None,,0.2,001,2020_Oct_19_1325,temp,2020.1.3,None,
462,0,462,0,,,,,,,100.77199373330998,None,u,0.11521570000331849,100.77364489994943,None,100.77364489994943,None,,0.2,001,2020_Oct_19_1325,temp,2020.1.3,None,
463,0,463,0,,,,,,,100.93133423332668,None,u,0.12440850003622472,100.93433279998135,None,100.93433279998135,None,,0.2,001,2020_Oct_19_1325,temp,2020.1.3,None,
464,0,464,0,,,,,,,101.0920117332794,None,u,0.1249152000527829,101.09281869995175,None,101.09281869995175,None,,0.2,001,2020_Oct_19_1325,temp,2020.1.3,None,
465,0,465,0,,,,,,,101.2640381333263,None,u,0.11713889997918159,101.26688649994321,None,101.26688649994321,None,,0.2,001,2020_Oct_19_1325,temp,2020.1.3,None,
466,0,466,0,,,,,,,101.42401243327961,None,u,0.12025989999528974,101.42542369995499,None,101.42542369995499,None,,0.2,001,2020_Oct_19_1325,temp,2020.1.3,None,
467,0,467,0,,,,,,,101.59730563331007,None,u,0.11526280001271516,101.5990328999469,None,101.5990328999469,None,,0.2,001,2020_Oct_19_1325,temp,2020.1.3,None,
468,0,468,0,,,,,,,101.75744173333126,None,u,0.12274719995912164,101.75879059999716,None,101.75879059999716,None,,0.2,001,2020_Oct_19_1325,temp,2020.1.3,None,
469,0,469,0,,,,,,,101.93174923328527,None,u,0.11487260001013055,101.93700179998996,None,101.93700179998996,None,,0.2,001,2020_Oct_19_1325,temp,2020.1.3,None,
470,0,470,0,,,,,,,102.09076503333247,None,u,0.10851389996241778,102.09588399995118,None,102.09588399995118,None,,0.2,001,2020_Oct_19_1325,temp,2020.1.3,None,
471,0,471,0,,,,,,,102.2550105999806,None,u,0.10889299999689683,102.25239789998159,None,102.25239789998159,None,,0.2,001,2020_Oct_19_1325,temp,2020.1.3,None,
472,0,472,0,,,,,,,102.41194933327691,None,u,0.10587719996692613,102.41875179996714,None,102.41875179996714,None,,0.2,001,2020_Oct_19_1325,temp,2020.1.3,None,
473,0,473,0,,,,,,,102.57094183332131,None,u,0.10138319997349754,102.57777629996417,None,102.57777629996417,None,,0.2,001,2020_Oct_19_1325,temp,2020.1.3,None,
474,0,474,0,,,,,,,102.717708233286,None,u,0.12947220000205562,102.72390389995417,None,102.72390389995417,None,,0.2,001,2020_Oct_19_1325,temp,2020.1.3,None,
475,0,475,0,,,,,,,102.89124833333383,None,u,0.12966500001493841,102.89565469999798,None,102.89565469999798,None,,0.2,001,2020_Oct_19_1325,temp,2020.1.3,None,
476,0,476,0,,,,,,,103.07794823329507,None,u,0.13269140000920743,103.07968469994375,None,103.07968469994375,None,,0.2,001,2020_Oct_19_1325,temp,2020.1.3,None,
477,0,477,0,,,,,,,103.25132783328493,None,u,0.11735249997582287,103.25325929996325,None,103.25325929996325,None,,0.2,001,2020_Oct_19_1325,temp,2020.1.3,None,
478,0,478,0,,,,,,,103.41209723329715,None,u,0.13196100003551692,103.41432179999538,None,103.41432179999538,None,,0.2,001,2020_Oct_19_1325,temp,2020.1.3,None,
479,0,479,0,,,,,,,103.58472643327744,None,u,0.1311144000501372,103.58547689998522,None,103.58547689998522,None,,0.2,001,2020_Oct_19_1325,temp,2020.1.3,None,
480,0,480,0,,,,,,,103.75811783329894,None,u,0.11694630002602935,103.75896729994565,None,103.75896729994565,None,,0.2,001,2020_Oct_19_1325,temp,2020.1.3,None,
481,0,481,0,,,,,,,103.91817833332655,None,u,0.12662850000197068,103.92015319998609,None,103.92015319998609,None,,0.2,001,2020_Oct_19_1325,temp,2020.1.3,None,
482,0,482,0,,,,,,,104.09191353328836,None,u,0.12919499998679385,104.09096750000026,None,104.09096750000026,None,,0.2,001,2020_Oct_19_1325,temp,2020.1.3,None,
483,0,483,0,,,,,,,104.25246743328947,None,u,0.1549726000521332,104.25435309996828,None,104.25435309996828,None,,0.2,001,2020_Oct_19_1325,temp,2020.1.3,None,
484,0,484,0,,,,,,,104.45184673328961,None,u,0.18226380000123754,104.4525130999973,None,104.4525130999973,None,,0.2,001,2020_Oct_19_1325,temp,2020.1.3,None,
485,0,485,0,,,,,,,104.69189933333158,None,u,0.12129870004719123,104.69244469999103,None,104.69244469999103,None,,0.2,001,2020_Oct_19_1325,temp,2020.1.3,None,
486,0,486,0,,,,,,,104.85216373328197,None,u,0.1593210000428371,104.86108189995866,None,104.86108189995866,None,,0.2,001,2020_Oct_19_1325,temp,2020.1.3,None,
487,0,487,0,,,,,,,105.0534209333205,None,u,0.16187140002148226,105.05570049997186,None,105.05570049997186,None,,0.2,001,2020_Oct_19_1325,temp,2020.1.3,None,
488,0,488,0,,,,,,,105.25227113330814,None,u,0.14890910004032776,105.25311929994496,None,105.25311929994496,None,,0.2,001,2020_Oct_19_1325,temp,2020.1.3,None,
489,0,489,0,,,,,,,105.43892303331134,None,u,0.1378763000248,105.44088059995556,None,105.44088059995556,None,,0.2,001,2020_Oct_19_1325,temp,2020.1.3,None,
490,0,490,0,,,,,,,105.62562913331979,None,u,0.11780639999778941,105.62557709997054,None,105.62557709997054,None,,0.2,001,2020_Oct_19_1325,temp,2020.1.3,None,
491,0,491,0,,,,,,,105.7853874333164,None,u,0.12314929999411106,105.78621149994433,None,105.78621149994433,None,,0.2,001,2020_Oct_19_1325,temp,2020.1.3,None,
492,0,492,0,,,,,,,105.95883233327962,None,u,0.1247084999922663,105.96059719996992,None,105.96059719996992,None,,0.2,001,2020_Oct_19_1325,temp,2020.1.3,None,
493,0,493,0,,,,,,,106.1190031333322,None,u,0.14680039999075234,106.12152349995449,None,106.12152349995449,None,,0.2,001,2020_Oct_19_1325,temp,2020.1.3,None,
494,0,494,0,,,,,,,106.3064604332981,None,u,0.12923540000338107,106.3067197999917,None,106.3067197999917,None,,0.2,001,2020_Oct_19_1325,temp,2020.1.3,None,
495,0,495,0,,,,,,,106.49287373328892,None,u,0.10414899996249005,106.49474509997526,None,106.49474509997526,None,,0.2,001,2020_Oct_19_1325,temp,2020.1.3,None,
496,0,496,0,,,,,,,106.63926703332302,None,u,0.1118309999583289,106.64182209997671,None,106.64182209997671,None,,0.2,001,2020_Oct_19_1325,temp,2020.1.3,None,
497,0,497,0,,,,,,,106.7859222333141,None,u,0.16218949999893084,106.79263389995322,None,106.79263389995322,None,,0.2,001,2020_Oct_19_1325,temp,2020.1.3,None,
498,0,498,0,,,,,,,106.99937083328453,None,u,0.12110620003659278,107.00413229997503,None,107.00413229997503,None,,0.2,001,2020_Oct_19_1325,temp,2020.1.3,None,
499,0,499,0,,,,,,,107.17381163332223,None,u,0.1140470000100322,107.17799249995733,None,107.17799249995733,None,,0.2,001,2020_Oct_19_1325,temp,2020.1.3,None,
500,0,500,0,,,,,,,107.33309103328114,None,u,0.11431889998493716,107.33497279998846,None,107.33497279998846,None,,0.2,001,2020_Oct_19_1325,temp,2020.1.3,None,
501,0,501,0,,,,,,,107.50721413328623,None,u,0.11156869999831542,107.50994329998503,None,107.50994329998503,None,,0.2,001,2020_Oct_19_1325,temp,2020.1.3,None,
502,0,502,0,,,,,,,107.66627073329485,None,u,0.10990039998432621,107.66795829997864,None,107.66795829997864,None,,0.2,001,2020_Oct_19_1325,temp,2020.1.3,None,
503,0,503,0,,,,,,,107.81302423327773,None,u,0.14171580004040152,107.81509539997205,None,107.81509539997205,None,,0.2,001,2020_Oct_19_1325,temp,2020.1.3,None,
504,0,504,0,,,,,,,108.00191723329092,None,u,0.11228010000195354,108.00168180000037,None,108.00168180000037,None,,0.2,001,2020_Oct_19_1325,temp,2020.1.3,None,
505,0,505,0,,,,,,,108.14653303329445,None,u,0.11490190000040457,108.14937489997828,None,108.14937489997828,None,,0.2,001,2020_Oct_19_1325,temp,2020.1.3,None,
506,0,506,0,,,,,,,108.30755993328833,None,u,0.10925840004347265,108.30913569999393,None,108.30913569999393,None,,0.2,001,2020_Oct_19_1325,temp,2020.1.3,None,
507,0,507,0,,,,,,,108.45426233328956,None,u,0.09393919998547062,108.45451289997436,None,108.45451289997436,None,,0.2,001,2020_Oct_19_1325,temp,2020.1.3,None,
508,0,508,0,,,,,,,108.58812043327683,None,u,0.15281050000339746,108.58943159994669,None,108.58943159994669,None,,0.2,001,2020_Oct_19_1325,temp,2020.1.3,None,
509,0,509,0,,,,,,,108.77480213333232,None,u,0.2993626999668777,108.77509479998844,None,108.77509479998844,None,,0.2,001,2020_Oct_19_1325,temp,2020.1.3,None,
510,0,510,0,,,,,,,109.10659883329257,None,u,0.30951950000599027,109.10792629997013,None,109.10792629997013,None,,0.2,001,2020_Oct_19_1325,temp,2020.1.3,None,
511,0,511,0,,,,,,,109.45345653332382,None,u,0.03350319998571649,109.45400679996237,None,109.45400679996237,None,,0.2,001,2020_Oct_19_1325,temp,2020.1.3,None,
512,0,512,0,,,,,,,109.52019873332077,None,u,0.12228660000255331,109.52006479998818,None,109.52006479998818,None,,0.2,001,2020_Oct_19_1325,temp,2020.1.3,None,
513,0,513,0,,,,,,,109.68043913332124,None,u,0.11977980000665411,109.68008639995242,None,109.68008639995242,None,,0.2,001,2020_Oct_19_1325,temp,2020.1.3,None,
514,0,514,0,,,,,,,109.85380773328555,None,u,0.08295170002384111,109.85476039996138,None,109.85476039996138,None,,0.2,001,2020_Oct_19_1325,temp,2020.1.3,None,
515,0,515,0,,,,,,,109.97376293328901,None,u,0.12433929997496307,109.97288089996437,None,109.97288089996437,None,,0.2,001,2020_Oct_19_1325,temp,2020.1.3,None,
516,0,516,0,,,,,,,110.13362843328699,None,u,0.028222299995832145,110.1327089999686,None,110.1327089999686,None,,0.2,001,2020_Oct_19_1325,temp,2020.1.3,None,
517,0,517,0,,,,,,,110.20057003328887,None,u,0.04910090001067147,110.20305989996996,None,110.20305989996996,None,,0.2,001,2020_Oct_19_1325,temp,2020.1.3,None,
518,0,518,0,,,,,,,110.29377063329642,None,u,0.04869419999886304,110.29366339999251,None,110.29366339999251,None,,0.2,001,2020_Oct_19_1325,temp,2020.1.3,None,
519,0,519,0,,,,,,,110.37440943328741,None,u,0.03506950003793463,110.37613779999083,None,110.37613779999083,None,,0.2,001,2020_Oct_19_1325,temp,2020.1.3,None,
520,0,520,0,,,,,,,110.45441013330904,None,u,0.14804800000274554,110.45405339996796,None,110.45405339996796,None,,0.2,001,2020_Oct_19_1325,temp,2020.1.3,None,
521,0,521,0,,,,,,,110.65397453332164,None,u,0.017280799977015704,110.65474379999796,None,110.65474379999796,None,,0.2,001,2020_Oct_19_1325,temp,2020.1.3,None,
522,0,522,0,,,,,,,110.72056323331392,None,u,0.04674170003272593,110.72271869995166,None,110.72271869995166,None,,0.2,001,2020_Oct_19_1325,temp,2020.1.3,None,
523,0,523,0,,,,,,,110.80296573328863,None,u,0.120723599975463,110.81219309999142,None,110.81219309999142,None,,0.2,001,2020_Oct_19_1325,temp,2020.1.3,None,
524,0,524,0,,,,,,,110.9874568333112,None,u,0.030461400048807263,110.99176979996264,None,110.99176979996264,None,,0.2,001,2020_Oct_19_1325,temp,2020.1.3,None,
525,0,525,0,,,,,,,111.05575483328042,None,u,0.05454619997180998,111.0618008999736,None,111.0618008999736,None,,0.2,001,2020_Oct_19_1325,temp,2020.1.3,None,
526,0,526,0,,,,,,,111.17747229996603,None,u,0.020503199950326234,111.17040859995177,None,111.17040859995177,None,,0.2,001,2020_Oct_19_1325,temp,2020.1.3,None,
527,0,527,0,,,,,,,111.22729423328613,None,u,0.03969959996175021,111.22964019997744,None,111.22964019997744,None,,0.2,001,2020_Oct_19_1325,temp,2020.1.3,None,
528,0,528,0,,,,,,,111.30747003330228,None,u,0.05822509998688474,111.3093781999778,None,111.3093781999778,None,,0.2,001,2020_Oct_19_1325,temp,2020.1.3,None,
529,0,529,0,,,,,,,111.40092873329607,None,u,0.14040019997628406,111.40181129996199,None,111.40181129996199,None,,0.2,001,2020_Oct_19_1325,temp,2020.1.3,None,
530,0,530,0,,,,,,,111.58837653330605,None,u,0.1371371999848634,111.59032639994984,None,111.59032639994984,None,,0.2,001,2020_Oct_19_1325,temp,2020.1.3,None,
531,0,531,0,,,,,,,111.76153843332625,None,u,0.08683589997235686,111.76251719996799,None,111.76251719996799,None,,0.2,001,2020_Oct_19_1325,temp,2020.1.3,None,
532,0,532,0,,,,,,,111.88203913329247,None,u,0.1817280999966897,111.8838191999821,None,111.8838191999821,None,,0.2,001,2020_Oct_19_1325,temp,2020.1.3,None,
533,0,533,0,,,,,,,112.10798643332285,None,u,0.13024059997405857,112.11009569995804,None,112.11009569995804,None,,0.2,001,2020_Oct_19_1325,temp,2020.1.3,None,
534,0,534,0,,,,,,,112.28150453331958,None,u,0.1539218999678269,112.2804636999499,None,112.2804636999499,None,,0.2,001,2020_Oct_19_1325,temp,2020.1.3,None,
535,0,535,0,,,,,,,112.46786863328501,None,u,0.11262589995749295,112.47088769997936,None,112.47088769997936,None,,0.2,001,2020_Oct_19_1325,temp,2020.1.3,None,
536,0,536,0,,,,,,,112.62850283331548,None,u,0.41570180002599955,112.63125279999804,None,112.63125279999804,None,,0.2,001,2020_Oct_19_1325,temp,2020.1.3,None,
537,0,537,0,,,,,,,113.08183313330713,None,u,0.7717932000523433,113.08517039997969,None,113.08517039997969,None,,0.2,001,2020_Oct_19_1325,temp,2020.1.3,None,
538,0,538,0,,,,,,,113.89544273331606,None,u,0.09465439995983616,113.89521449996391,None,113.89521449996391,None,,0.2,001,2020_Oct_19_1325,temp,2020.1.3,None,
539,0,539,0,,,,,,,114.02857973328403,None,u,0.10645339998882264,114.03043649997562,None,114.03043649997562,None,,0.2,001,2020_Oct_19_1325,temp,2020.1.3,None,
540,0,540,0,,,,,,,114.17689513328563,None,u,0.10665149998385459,114.17969069996616,None,114.17969069996616,None,,0.2,001,2020_Oct_19_1325,temp,2020.1.3,None,
541,0,541,0,,,,,,,114.33690893330689,None,u,0.08818080002674833,114.33882969996193,None,114.33882969996193,None,,0.2,001,2020_Oct_19_1325,temp,2020.1.3,None,
542,0,542,0,,,,,,,114.47048363328989,None,u,0.10165039997082204,114.47636919998331,None,114.47636919998331,None,,0.2,001,2020_Oct_19_1325,temp,2020.1.3,None,
543,0,543,0,,,,,,,114.6170629332851,None,u,0.09295920003205538,114.61930769996252,None,114.61930769996252,None,,0.2,001,2020_Oct_19_1325,temp,2020.1.3,None,
544,0,544,0,,,,,,,114.7487238333056,None,u,0.10934079997241497,114.75539989996469,None,114.75539989996469,None,,0.2,001,2020_Oct_19_1325,temp,2020.1.3,None,
545,0,545,0,,,,,,,114.89711863332971,None,u,0.11060559999896213,114.9026127999532,None,114.9026127999532,None,,0.2,001,2020_Oct_19_1325,temp,2020.1.3,None,
546,0,546,0,,,,,,,115.0555520333078,None,u,0.09880620002513751,115.05751979997149,None,115.05751979997149,None,,0.2,001,2020_Oct_19_1325,temp,2020.1.3,None,
547,0,547,0,,,,,,,115.18911373330823,None,u,0.11630569997942075,115.19265059998725,None,115.19265059998725,None,,0.2,001,2020_Oct_19_1325,temp,2020.1.3,None,
548,0,548,0,,,,,,,115.35078443331489,None,u,0.09488820005208254,115.35451929998817,None,115.35451929998817,None,,0.2,001,2020_Oct_19_1325,temp,2020.1.3,None,
549,0,549,0,,,,,,,115.48423693329872,None,u,0.10757829999784008,115.49000059999526,None,115.49000059999526,None,,0.2,001,2020_Oct_19_1325,temp,2020.1.3,None,
550,0,550,0,,,,,,,115.63099123328769,None,u,0.12353390001226217,115.63552559999516,None,115.63552559999516,None,,0.2,001,2020_Oct_19_1325,temp,2020.1.3,None,
551,0,551,0,,,,,,,115.81673303328765,None,u,0.09255239996127784,115.81930999999167,None,115.81930999999167,None,,0.2,001,2020_Oct_19_1325,temp,2020.1.3,None,
552,0,552,0,,,,,,,115.94909503329157,None,u,0.12175990000832826,115.95433809998212,None,115.95433809998212,None,,0.2,001,2020_Oct_19_1325,temp,2020.1.3,None,
553,0,553,0,,,,,,,116.11037053331577,None,u,0.1165927000110969,116.11716460000025,None,116.11716460000025,None,,0.2,001,2020_Oct_19_1325,temp,2020.1.3,None,
554,0,554,0,,,,,,,116.28294203332237,None,u,0.11224650003714487,116.28576349996729,None,116.28576349996729,None,,0.2,001,2020_Oct_19_1325,temp,2020.1.3,None,
555,0,555,0,,,,,,,116.43043563329459,None,u,0.11714119999669492,116.43531939998502,None,116.43531939998502,None,,0.2,001,2020_Oct_19_1325,temp,2020.1.3,None,
556,0,556,0,,,,,,,116.58950643329493,None,u,0.11951569997472689,116.5933398999623,None,116.5933398999623,None,,0.2,001,2020_Oct_19_1325,temp,2020.1.3,None,
557,0,557,0,,,,,,,116.7493427333034,None,u,0.11885019997134805,116.75303759996314,None,116.75303759996314,None,,0.2,001,2020_Oct_19_1325,temp,2020.1.3,None,
558,0,558,0,,,,,,,116.90949253331249,None,u,0.1149281999678351,116.91292679996695,None,116.91292679996695,None,,0.2,001,2020_Oct_19_1325,temp,2020.1.3,None,
559,0,559,0,,,,,,,117.06983223331238,None,u,0.07034049998037517,117.07314079999924,None,117.07314079999924,None,,0.2,001,2020_Oct_19_1325,temp,2020.1.3,None,
