instructions_loop.thisRepN,instructions_loop.thisTrialN,instructions_loop.thisN,instructions_loop.thisIndex,practiceTrials.thisRepN,practiceTrials.thisTrialN,practiceTrials.thisN,practiceTrials.thisIndex,welcomeText.started,welcomeText.stopped,welcome_resp.keys,welcome_resp.rt,welcome_resp.started,welcome_resp.stopped,text_10.started,text_10.stopped,key_resp_8.keys,key_resp_8.rt,key_resp_8.started,key_resp_8.stopped,firstITI.started,firstITI.stopped,trials.label,trials.startVal,trials.startValSd,trials.pThreshold,trials.beta,trials.delta,trials.gamma,trials.grain,trials.range,trials.minVal,trials.maxVal,trials.thisIndex,trials.thisRepN,trials.thisN,trials.direction,trials.stepSize,trials.stepType,trials.intensity,trials.response,participant,Session,Tone Length,Condition,calibration,date,expName,psychopyVersion,frameRate,
,,,,,,,,15.155448599994997,None,space,4.124645899995812,15.155448599994997,None,,,,,,,,,,,,,,,,,,,,,,,,,,,,,1,Short,Quiet,0.8912509381337447,2020_Nov_03_1100,toneDetectionPlatform_V1.7,2020.2.4,60.10615950082487,
,,,,,,,,,,,,,,19.303264999995008,None,b,0.740700399997877,19.303264999995008,None,,,,,,,,,,,,,,,,,,,,,,,1,Short,Quiet,0.8912509381337447,2020_Nov_03_1100,toneDetectionPlatform_V1.7,2020.2.4,60.10615950082487,
,,,,,,,,,,,,,,,,,,,,20.070753399995738,None,test,100,70,0.63,3.5,0.01,0.01,0.01,100,0,60,0,1,0,start,4,lin,100,0,,1,Short,Quiet,0.8912509381337447,2020_Nov_03_1100,toneDetectionPlatform_V1.7,2020.2.4,60.10615950082487,
,,,,,,,,,,,,,,,,,,,,,,test,100,70,0.63,3.5,0.01,0.01,0.01,100,0,60,0,2,1,start,4,lin,60,1,,1,Short,Quiet,0.8912509381337447,2020_Nov_03_1100,toneDetectionPlatform_V1.7,2020.2.4,60.10615950082487,
,,,,,,,,,,,,,,,,,,,,,,test,100,70,0.63,3.5,0.01,0.01,0.01,100,0,60,0,3,2,start,4,lin,60,1,,1,Short,Quiet,0.8912509381337447,2020_Nov_03_1100,toneDetectionPlatform_V1.7,2020.2.4,60.10615950082487,
,,,,,,,,,,,,,,,,,,,,,,test,100,70,0.63,3.5,0.01,0.01,0.01,100,0,60,0,4,3,start,4,lin,55.3915636138039,1,,1,Short,Quiet,0.8912509381337447,2020_Nov_03_1100,toneDetectionPlatform_V1.7,2020.2.4,60.10615950082487,
,,,,,,,,,,,,,,,,,,,,,,test,100,70,0.63,3.5,0.01,0.01,0.01,100,0,60,0,5,4,start,4,lin,52.78675696675996,1,,1,Short,Quiet,0.8912509381337447,2020_Nov_03_1100,toneDetectionPlatform_V1.7,2020.2.4,60.10615950082487,
,,,,,,,,,,,,,,,,,,,,,,test,100,70,0.63,3.5,0.01,0.01,0.01,100,0,60,0,6,5,start,4,lin,51.447585839136295,1,,1,Short,Quiet,0.8912509381337447,2020_Nov_03_1100,toneDetectionPlatform_V1.7,2020.2.4,60.10615950082487,
,,,,,,,,,,,,,,,,,,,,,,test,100,70,0.63,3.5,0.01,0.01,0.01,100,0,60,0,7,6,start,4,lin,50.76348938896495,1,,1,Short,Quiet,0.8912509381337447,2020_Nov_03_1100,toneDetectionPlatform_V1.7,2020.2.4,60.10615950082487,
,,,,,,,,,,,,,,,,,,,,,,test,100,70,0.63,3.5,0.01,0.01,0.01,100,0,60,0,8,7,start,4,lin,50.41274423551139,1,,1,Short,Quiet,0.8912509381337447,2020_Nov_03_1100,toneDetectionPlatform_V1.7,2020.2.4,60.10615950082487,
,,,,,,,,,,,,,,,,,,,,,,test,100,70,0.63,3.5,0.01,0.01,0.01,100,0,60,0,9,8,start,4,lin,50.232514628550504,1,,1,Short,Quiet,0.8912509381337447,2020_Nov_03_1100,toneDetectionPlatform_V1.7,2020.2.4,60.10615950082487,
,,,,,,,,,,,,,,,,,,,,,,test,100,70,0.63,3.5,0.01,0.01,0.01,100,0,60,0,10,9,start,4,lin,50.13735358990015,1,,1,Short,Quiet,0.8912509381337447,2020_Nov_03_1100,toneDetectionPlatform_V1.7,2020.2.4,60.10615950082487,
,,,,,,,,,,,,,,,,,,,,,,test,100,70,0.63,3.5,0.01,0.01,0.01,100,0,60,0,11,10,start,4,lin,50.0869853245929,0,,1,Short,Quiet,0.8912509381337447,2020_Nov_03_1100,toneDetectionPlatform_V1.7,2020.2.4,60.10615950082487,
,,,,,,,,,,,,,,,,,,,,,,test,100,70,0.63,3.5,0.01,0.01,0.01,100,0,60,0,12,11,start,4,lin,50.13849786613626,1,,1,Short,Quiet,0.8912509381337447,2020_Nov_03_1100,toneDetectionPlatform_V1.7,2020.2.4,60.10615950082487,
,,,,,,,,,,,,,,,,,,,,,,test,100,70,0.63,3.5,0.01,0.01,0.01,100,0,60,0,13,12,start,4,lin,50.10434695805239,1,,1,Short,Quiet,0.8912509381337447,2020_Nov_03_1100,toneDetectionPlatform_V1.7,2020.2.4,60.10615950082487,
,,,,,,,,,,,,,,,,,,,,,,test,100,70,0.63,3.5,0.01,0.01,0.01,100,0,60,0,14,13,start,4,lin,50.07944759666896,1,,1,Short,Quiet,0.8912509381337447,2020_Nov_03_1100,toneDetectionPlatform_V1.7,2020.2.4,60.10615950082487,
,,,,,,,,,,,,,,,,,,,,,,test,100,70,0.63,3.5,0.01,0.01,0.01,100,0,60,0,15,14,start,4,lin,50.06158607981564,1,,1,Short,Quiet,0.8912509381337447,2020_Nov_03_1100,toneDetectionPlatform_V1.7,2020.2.4,60.10615950082487,
,,,,,,,,,,,,,,,,,,,,,,test,100,70,0.63,3.5,0.01,0.01,0.01,100,0,60,0,16,15,start,4,lin,50.04812686106907,1,,1,Short,Quiet,0.8912509381337447,2020_Nov_03_1100,toneDetectionPlatform_V1.7,2020.2.4,60.10615950082487,
,,,,,,,,,,,,,,,,,,,,,,test,100,70,0.63,3.5,0.01,0.01,0.01,100,0,60,0,17,16,start,4,lin,50.038089860066876,1,,1,Short,Quiet,0.8912509381337447,2020_Nov_03_1100,toneDetectionPlatform_V1.7,2020.2.4,60.10615950082487,
,,,,,,,,,,,,,,,,,,,,,,test,100,70,0.63,3.5,0.01,0.01,0.01,100,0,60,0,18,17,start,4,lin,50.0303353331794,1,,1,Short,Quiet,0.8912509381337447,2020_Nov_03_1100,toneDetectionPlatform_V1.7,2020.2.4,60.10615950082487,
,,,,,,,,,,,,,,,,,,,,,,test,100,70,0.63,3.5,0.01,0.01,0.01,100,0,60,0,19,18,start,4,lin,50.024470958084244,1,,1,Short,Quiet,0.8912509381337447,2020_Nov_03_1100,toneDetectionPlatform_V1.7,2020.2.4,60.10615950082487,
,,,,,,,,,,,,,,,,,,,,,,test,100,70,0.63,3.5,0.01,0.01,0.01,100,0,60,0,20,19,start,4,lin,50.01953191106208,0,,1,Short,Quiet,0.8912509381337447,2020_Nov_03_1100,toneDetectionPlatform_V1.7,2020.2.4,60.10615950082487,
,,,,,,,,,,,,,,,,,,,,,,test,100,70,0.63,3.5,0.01,0.01,0.01,100,0,60,0,21,20,start,4,lin,50.02614621126625,,,,,,,,,,,
