instructions_loop.thisRepN,instructions_loop.thisTrialN,instructions_loop.thisN,instructions_loop.thisIndex,practiceTrials.thisRepN,practiceTrials.thisTrialN,practiceTrials.thisN,practiceTrials.thisIndex,practiceCompleteLoop.thisRepN,practiceCompleteLoop.thisTrialN,practiceCompleteLoop.thisN,practiceCompleteLoop.thisIndex,welcomeText.started,welcomeText.stopped,welcome_resp.keys,welcome_resp.rt,welcome_resp.started,welcome_resp.stopped,firstITI.started,firstITI.stopped,text_10.started,text_10.stopped,key_resp_8.keys,key_resp_8.rt,key_resp_8.started,key_resp_8.stopped,trials.label,trials.startVal,trials.startValSd,trials.pThreshold,trials.beta,trials.delta,trials.gamma,trials.grain,trials.range,trials.minVal,trials.maxVal,trials.thisIndex,trials.thisRepN,trials.thisN,trials.direction,trials.stepSize,trials.stepType,trials.intensity,trials.response,Trial,Psychopy_input_value,Desired_dB,Condition,Response_time,Accuracy,text_11.started,text_11.stopped,key_resp_9.keys,key_resp_9.rt,key_resp_9.started,key_resp_9.stopped,Participant,Session,Condition,Calibration,Practice,Instructions,date,expName,psychopyVersion,frameRate,
,,,,,,,,,,,,25.375276145001408,None,space,0.5794033019992639,25.375276145001408,None,,,,,,,,,,,,,,,,,,,,,,,,,,,,,,,Quiet,,,,,,,,,,1,Quiet,0.8912509381337447,No,No,2020_Nov_04_1141,toneDetectionPlatform_V1.7,2020.2.5,60.036347686028016,
,,,,,,,,,,,,,,,,,,25.973670489998767,None,30.990118867001,None,b,1.3096639909999794,30.990118867001,None,,,,,,,,,,,,,,,,,,,,,,,Quiet,,,,,,,,,,1,Quiet,0.8912509381337447,No,No,2020_Nov_04_1141,toneDetectionPlatform_V1.7,2020.2.5,60.036347686028016,
,,,,,,,,,,,,,,,,,,32.32319933100007,None,,,,,,,test,80,32,0.63,3.5,0.01,0.01,0.01,100,0,100,0,1,0,start,4,lin,80,1,1,0.01258925411794167,80.0,Quiet,0.37473467599920696,1,,,,,,,,1,Quiet,0.8912509381337447,No,No,2020_Nov_04_1141,toneDetectionPlatform_V1.7,2020.2.5,60.036347686028016,
,,,,,,,,,,,,,,,,,,,,,,,,,,test,80,32,0.63,3.5,0.01,0.01,0.01,100,0,100,0,2,1,start,4,lin,61.555998968509456,1,2,0.0015059132288911036,61.555998968509456,Quiet,0.31054558899995754,1,,,,,,,,1,Quiet,0.8912509381337447,No,No,2020_Nov_04_1141,toneDetectionPlatform_V1.7,2020.2.5,60.036347686028016,
,,,,,,,,,,,,,,,,,,,,,,,,,,test,80,32,0.63,3.5,0.01,0.01,0.01,100,0,100,0,3,2,start,4,lin,49.73422800560533,1,3,0.0003861103116690461,49.73422800560533,Quiet,0.5104732729996613,1,,,,,,,,1,Quiet,0.8912509381337447,No,No,2020_Nov_04_1141,toneDetectionPlatform_V1.7,2020.2.5,60.036347686028016,
,,,,,,,,,,,,,,,,,,,,,,,,,,test,80,32,0.63,3.5,0.01,0.01,0.01,100,0,100,0,4,3,start,4,lin,41.820302374026156,1,4,0.00015524410527447668,41.820302374026156,Quiet,0.509953807999409,1,,,,,,,,1,Quiet,0.8912509381337447,No,No,2020_Nov_04_1141,toneDetectionPlatform_V1.7,2020.2.5,60.036347686028016,
,,,,,,,,,,,,,,,,,,,,,,,,,,test,80,32,0.63,3.5,0.01,0.01,0.01,100,0,100,0,5,4,start,4,lin,36.74375157993622,1,5,8.653415934721939e-05,36.74375157993622,Quiet,2.461963140998705,1,,,,,,,,1,Quiet,0.8912509381337447,No,No,2020_Nov_04_1141,toneDetectionPlatform_V1.7,2020.2.5,60.036347686028016,
,,,,,,,,,,,,,,,,,,,,,,,,,,test,80,32,0.63,3.5,0.01,0.01,0.01,100,0,100,0,6,5,start,4,lin,33.695010623041235,0,6,6.091868656171759e-05,33.695010623041235,Quiet,0.573312476000865,0,,,,,,,,1,Quiet,0.8912509381337447,No,No,2020_Nov_04_1141,toneDetectionPlatform_V1.7,2020.2.5,60.036347686028016,
,,,,,,,,,,,,,,,,,,,,,,,,,,test,80,32,0.63,3.5,0.01,0.01,0.01,100,0,100,0,7,6,start,4,lin,35.352707445001634,1,7,7.37284955760704e-05,35.352707445001634,Quiet,0.2527681069987011,1,,,,,,,,1,Quiet,0.8912509381337447,No,No,2020_Nov_04_1141,toneDetectionPlatform_V1.7,2020.2.5,60.036347686028016,
,,,,,,,,,,,,,,,,,,,,,,,,,,test,80,32,0.63,3.5,0.01,0.01,0.01,100,0,100,0,8,7,start,4,lin,34.598587281678256,1,8,6.759730226781044e-05,34.598587281678256,Quiet,1.1604904960004205,1,,,,,,,,1,Quiet,0.8912509381337447,No,No,2020_Nov_04_1141,toneDetectionPlatform_V1.7,2020.2.5,60.036347686028016,
,,,,,,,,,,,,,,,,,,,,,,,,,,test,80,32,0.63,3.5,0.01,0.01,0.01,100,0,100,0,9,8,start,4,lin,34.20686764346295,1,9,6.461649281856862e-05,34.20686764346295,Quiet,2.299357225998392,1,,,,,,,,1,Quiet,0.8912509381337447,No,No,2020_Nov_04_1141,toneDetectionPlatform_V1.7,2020.2.5,60.036347686028016,
,,,,,,,,,,,,,,,,,,,,,,,,,,test,80,32,0.63,3.5,0.01,0.01,0.01,100,0,100,0,10,9,start,4,lin,33.996552012153195,1,10,6.307069266647591e-05,33.996552012153195,Quiet,0.3744632769994496,1,,,,,,,,1,Quiet,0.8912509381337447,No,No,2020_Nov_04_1141,toneDetectionPlatform_V1.7,2020.2.5,60.036347686028016,
,,,,,,,,,,,,,,,,,,,,,,,,,,test,80,32,0.63,3.5,0.01,0.01,0.01,100,0,100,0,11,10,start,4,lin,33.86980637032269,0,11,6.21570391277157e-05,33.86980637032269,Quiet,0.3720796669986157,0,,,,,,,,1,Quiet,0.8912509381337447,No,No,2020_Nov_04_1141,toneDetectionPlatform_V1.7,2020.2.5,60.036347686028016,
,,,,,,,,,,,,,,,,,,,,,,,,,,test,80,32,0.63,3.5,0.01,0.01,0.01,100,0,100,0,12,11,start,4,lin,33.991067919966575,1,12,6.303088369609442e-05,33.991067919966575,Quiet,0.43171832599909976,1,,,,,,,,1,Quiet,0.8912509381337447,No,No,2020_Nov_04_1141,toneDetectionPlatform_V1.7,2020.2.5,60.036347686028016,
,,,,,,,,,,,,,,,,,,,,,,,,,,test,80,32,0.63,3.5,0.01,0.01,0.01,100,0,100,0,13,12,start,4,lin,33.93705762123017,0,13,6.264016327469801e-05,33.93705762123017,Quiet,3.67013559499901,0,,,,,,,,1,Quiet,0.8912509381337447,No,No,2020_Nov_04_1141,toneDetectionPlatform_V1.7,2020.2.5,60.036347686028016,
,,,,,,,,,,,,,,,,,,,,,,,,,,test,80,32,0.63,3.5,0.01,0.01,0.01,100,0,100,0,14,13,start,4,lin,33.99827573418986,0,14,6.308321034002297e-05,33.99827573418986,Quiet,0.013925601000664756,0,,,,,,,,1,Quiet,0.8912509381337447,No,No,2020_Nov_04_1141,toneDetectionPlatform_V1.7,2020.2.5,60.036347686028016,
,,,,,,,,,,,,,,,,,,,,,,,,,,test,80,32,0.63,3.5,0.01,0.01,0.01,100,0,100,0,15,14,start,4,lin,34.05042321322236,0,15,6.346308221215796e-05,34.05042321322236,Quiet,1.6051696379981877,0,,,,,,,,1,Quiet,0.8912509381337447,No,No,2020_Nov_04_1141,toneDetectionPlatform_V1.7,2020.2.5,60.036347686028016,
,,,,,,,,,,,,,,,,,,,,,,,,,,test,80,32,0.63,3.5,0.01,0.01,0.01,100,0,100,0,16,15,start,4,lin,34.09726840647534,0,16,6.380627926107846e-05,34.09726840647534,Quiet,0.4318272540003818,0,,,,,,,,1,Quiet,0.8912509381337447,No,No,2020_Nov_04_1141,toneDetectionPlatform_V1.7,2020.2.5,60.036347686028016,
,,,,,,,,,,,,,,,,,,,,,,,,,,test,80,32,0.63,3.5,0.01,0.01,0.01,100,0,100,0,17,16,start,4,lin,34.14240012197687,1,17,6.413867828253027e-05,34.14240012197687,Quiet,0.47499285499725374,1,,,,,,,,1,Quiet,0.8912509381337447,No,No,2020_Nov_04_1141,toneDetectionPlatform_V1.7,2020.2.5,60.036347686028016,
,,,,,,,,,,,,,,,,,,,,,,,,,,test,80,32,0.63,3.5,0.01,0.01,0.01,100,0,100,0,18,17,start,4,lin,34.11577302114304,1,18,6.394235849535439e-05,34.11577302114304,Quiet,1.4757903009995061,1,,,,,,,,1,Quiet,0.8912509381337447,No,No,2020_Nov_04_1141,toneDetectionPlatform_V1.7,2020.2.5,60.036347686028016,
,,,,,,,,,,,,,,,,,,,,,,,,,,test,80,32,0.63,3.5,0.01,0.01,0.01,100,0,100,0,19,18,start,4,lin,34.09578719605128,0,19,6.379539926238094e-05,34.09578719605128,Quiet,0.1878388460027054,0,,,,,,,,1,Quiet,0.8912509381337447,No,No,2020_Nov_04_1141,toneDetectionPlatform_V1.7,2020.2.5,60.036347686028016,
,,,,,,,,,,,,,,,,,,,,,,,,,,test,80,32,0.63,3.5,0.01,0.01,0.01,100,0,100,0,20,19,start,4,lin,34.123537118735,0,20,6.399954050924261e-05,34.123537118735,Quiet,3.424551487001736,0,,,,,,,,1,Quiet,0.8912509381337447,No,No,2020_Nov_04_1141,toneDetectionPlatform_V1.7,2020.2.5,60.036347686028016,
,,,,,,,,,,,,,,,,,,,,,,,,,,test,80,32,0.63,3.5,0.01,0.01,0.01,100,0,100,0,21,20,start,4,lin,34.148929870173006,0,21,6.41869136273104e-05,34.148929870173006,Quiet,1.4355002849988523,0,,,,,,,,1,Quiet,0.8912509381337447,No,No,2020_Nov_04_1141,toneDetectionPlatform_V1.7,2020.2.5,60.036347686028016,
,,,,,,,,,,,,,,,,,,,,,,,,,,test,80,32,0.63,3.5,0.01,0.01,0.01,100,0,100,0,22,21,start,4,lin,34.17473128832321,1,22,6.437786419720532e-05,34.17473128832321,Quiet,1.587758825000492,1,,,,,,,,1,Quiet,0.8912509381337447,No,No,2020_Nov_04_1141,toneDetectionPlatform_V1.7,2020.2.5,60.036347686028016,
,,,,,,,,,,,,,,,,,,,,,,,,,,test,80,32,0.63,3.5,0.01,0.01,0.01,100,0,100,0,23,22,start,4,lin,34.15876948642932,0,23,6.425966754116596e-05,34.15876948642932,Quiet,0.4482237990014255,0,,,,,,,,1,Quiet,0.8912509381337447,No,No,2020_Nov_04_1141,toneDetectionPlatform_V1.7,2020.2.5,60.036347686028016,
,,,,,,,,,,,,,,,,,,,,,,,,,,test,80,32,0.63,3.5,0.01,0.01,0.01,100,0,100,0,24,23,start,4,lin,34.18028037598048,1,24,6.441900592981933e-05,34.18028037598048,Quiet,2.353521149001608,1,,,,,,,,1,Quiet,0.8912509381337447,No,No,2020_Nov_04_1141,toneDetectionPlatform_V1.7,2020.2.5,60.036347686028016,
,,,,,,,,,,,,,,,,,,,,,,,,,,test,80,32,0.63,3.5,0.01,0.01,0.01,100,0,100,0,25,24,start,4,lin,34.16721254865009,1,25,6.432216109907574e-05,34.16721254865009,Quiet,0.6098300399971777,1,,,,,,,,1,Quiet,0.8912509381337447,No,No,2020_Nov_04_1141,toneDetectionPlatform_V1.7,2020.2.5,60.036347686028016,
,,,,,,,,,,,,,,,,,,,,,,,,,,test,80,32,0.63,3.5,0.01,0.01,0.01,100,0,100,0,26,25,start,4,lin,34.15602461640099,1,26,6.423936374089925e-05,34.15602461640099,Quiet,0.3122426779991656,1,,,,,,,,1,Quiet,0.8912509381337447,No,No,2020_Nov_04_1141,toneDetectionPlatform_V1.7,2020.2.5,60.036347686028016,
,,,,,,,,,,,,,,,,,,,,,,,,,,test,80,32,0.63,3.5,0.01,0.01,0.01,100,0,100,0,27,26,start,4,lin,34.1461562969133,1,27,6.416642077120172e-05,34.1461562969133,Quiet,0.3994781640030851,1,,,,,,,,1,Quiet,0.8912509381337447,No,No,2020_Nov_04_1141,toneDetectionPlatform_V1.7,2020.2.5,60.036347686028016,
,,,,,,,,,,,,,,,,,,,,,,,,,,test,80,32,0.63,3.5,0.01,0.01,0.01,100,0,100,0,28,27,start,4,lin,34.137260019351245,0,28,6.410073376867946e-05,34.137260019351245,Quiet,0.4429663470000378,0,,,,,,,,1,Quiet,0.8912509381337447,No,No,2020_Nov_04_1141,toneDetectionPlatform_V1.7,2020.2.5,60.036347686028016,
,,,,,,,,,,,,,,,,,,,,,,,,,,test,80,32,0.63,3.5,0.01,0.01,0.01,100,0,100,0,29,28,start,4,lin,34.150754949090896,1,29,6.420040199706709e-05,34.150754949090896,Quiet,2.8713690639997367,1,,,,,,,,1,Quiet,0.8912509381337447,No,No,2020_Nov_04_1141,toneDetectionPlatform_V1.7,2020.2.5,60.036347686028016,
,,,,,,,,,,,,,,,,,,,,,,,,,,test,80,32,0.63,3.5,0.01,0.01,0.01,100,0,100,0,30,29,start,4,lin,34.142653304619344,1,30,6.414054787072465e-05,34.142653304619344,Quiet,2.0235560620021715,1,,,,,,,,1,Quiet,0.8912509381337447,No,No,2020_Nov_04_1141,toneDetectionPlatform_V1.7,2020.2.5,60.036347686028016,
,,,,,,,,,,,,,,,,,,,,,,,,,,,,,,,,,,,,,,,,,,,,,,,,Quiet,,,215.03622279800038,None,e,4.227258302998962,215.03622279800038,None,,1,Quiet,0.8912509381337447,No,No,2020_Nov_04_1141,toneDetectionPlatform_V1.7,2020.2.5,60.036347686028016,
