instructions_loop.thisRepN,instructions_loop.thisTrialN,instructions_loop.thisN,instructions_loop.thisIndex,practiceTrials.thisRepN,practiceTrials.thisTrialN,practiceTrials.thisN,practiceTrials.thisIndex,practiceCompleteLoop.thisRepN,practiceCompleteLoop.thisTrialN,practiceCompleteLoop.thisN,practiceCompleteLoop.thisIndex,welcomeText.started,welcomeText.stopped,welcome_resp.keys,welcome_resp.rt,welcome_resp.started,welcome_resp.stopped,firstITI.started,firstITI.stopped,text_10.started,text_10.stopped,key_resp_8.keys,key_resp_8.rt,key_resp_8.started,key_resp_8.stopped,trials.label,trials.startVal,trials.startValSd,trials.pThreshold,trials.beta,trials.delta,trials.gamma,trials.grain,trials.range,trials.minVal,trials.maxVal,trials.thisIndex,trials.thisRepN,trials.thisN,trials.direction,trials.stepSize,trials.stepType,trials.intensity,trials.response,Trial,Psychopy_input_value,Desired_dB,Condition,trialType,Response_time,Accuracy,text_11.started,text_11.stopped,key_resp_9.keys,key_resp_9.rt,key_resp_9.started,key_resp_9.stopped,Participant,Session,Condition,Calibration,Practice,Instructions,date,expName,psychopyVersion,frameRate,
,,,,,,,,,,,,28.918520199949853,None,space,1.4010637000901625,28.918520199949853,None,,,,,,,,,,,,,,,,,,,,,,,,,,,,,,,Simultaneous,,,,,,,,,,,1,Simultaneous,0.8912509381337447,No,No,2020_Nov_09_1551,toneDetectionPlatform_V1.8,2020.2.4,59.93874258521231,
,,,,,,,,,,,,,,,,,,30.345252700033598,None,35.46780039998703,None,b,2.949752699933015,35.46780039998703,None,,,,,,,,,,,,,,,,,,,,,,,Simultaneous,,,,,,,,,,,1,Simultaneous,0.8912509381337447,No,No,2020_Nov_09_1551,toneDetectionPlatform_V1.8,2020.2.4,59.93874258521231,
,,,,,,,,,,,,,,,,,,38.436183999991044,None,,,,,,,test,80,32,0.63,3.5,0.01,0.01,0.01,100,0,100,0,1,0,start,4,lin,80,1,1,0.01258925411794167,80.0,Simultaneous,Test,1.6249294999288395,1,,,,,,,,1,Simultaneous,0.8912509381337447,No,No,2020_Nov_09_1551,toneDetectionPlatform_V1.8,2020.2.4,59.93874258521231,
,,,,,,,,,,,,,,,,,,,,,,,,,,test,80,32,0.63,3.5,0.01,0.01,0.01,100,0,100,0,2,1,start,4,lin,61.555998968509456,1,2,0.0015059132288911036,61.555998968509456,Simultaneous,Test,0.4441264000488445,1,,,,,,,,1,Simultaneous,0.8912509381337447,No,No,2020_Nov_09_1551,toneDetectionPlatform_V1.8,2020.2.4,59.93874258521231,
,,,,,,,,,,,,,,,,,,,,,,,,,,test,80,32,0.63,3.5,0.01,0.01,0.01,100,0,100,0,3,2,start,4,lin,49.73422800560533,0,3,0.0003861103116690461,49.73422800560533,Simultaneous,Test,1.0753359999507666,0,,,,,,,,1,Simultaneous,0.8912509381337447,No,No,2020_Nov_09_1551,toneDetectionPlatform_V1.8,2020.2.4,59.93874258521231,
,,,,,,,,,,,,,,,,,,,,,,,,,,test,80,32,0.63,3.5,0.01,0.01,0.01,100,0,100,0,4,3,start,4,lin,56.18164908497858,1,4,0.000811115039853974,56.18164908497858,Simultaneous,Test,0.8292956000659615,1,,,,,,,,1,Simultaneous,0.8912509381337447,No,No,2020_Nov_09_1551,toneDetectionPlatform_V1.8,2020.2.4,59.93874258521231,
,,,,,,,,,,,,,,,,,,,,,,,,,,test,80,32,0.63,3.5,0.01,0.01,0.01,100,0,100,0,5,4,start,4,lin,53.126633930517,1,5,0.0005705999069853663,53.126633930517,Simultaneous,Test,0.309673500014469,1,,,,,,,,1,Simultaneous,0.8912509381337447,No,No,2020_Nov_09_1551,toneDetectionPlatform_V1.8,2020.2.4,59.93874258521231,
,,,,,,,,,,,,,,,,,,,,,,,,,,test,80,32,0.63,3.5,0.01,0.01,0.01,100,0,100,0,6,5,start,4,lin,51.48693887593194,1,6,0.0004724403078120434,51.48693887593194,Simultaneous,Test,0.6384925999445841,1,,,,,,,,1,Simultaneous,0.8912509381337447,No,No,2020_Nov_09_1551,toneDetectionPlatform_V1.8,2020.2.4,59.93874258521231,
,,,,,,,,,,,,,,,,,,,,,,,,,,test,80,32,0.63,3.5,0.01,0.01,0.01,100,0,100,0,7,6,start,4,lin,50.627778557701504,1,7,0.00042794595712843185,50.627778557701504,Simultaneous,Test,0.7468448000727221,1,,,,,,,,1,Simultaneous,0.8912509381337447,No,No,2020_Nov_09_1551,toneDetectionPlatform_V1.8,2020.2.4,59.93874258521231,
,,,,,,,,,,,,,,,,,,,,,,,,,,test,80,32,0.63,3.5,0.01,0.01,0.01,100,0,100,0,8,7,start,4,lin,50.181345448632825,0,8,0.00040650629231580324,50.181345448632825,Simultaneous,Test,0.8520529000088573,0,,,,,,,,1,Simultaneous,0.8912509381337447,No,No,2020_Nov_09_1551,toneDetectionPlatform_V1.8,2020.2.4,59.93874258521231,
,,,,,,,,,,,,,,,,,,,,,,,,,,test,80,32,0.63,3.5,0.01,0.01,0.01,100,0,100,0,9,8,start,4,lin,50.466559879893666,1,9,0.0004200761200231537,50.466559879893666,Simultaneous,Test,0.1582876000320539,1,,,,,,,,1,Simultaneous,0.8912509381337447,No,No,2020_Nov_09_1551,toneDetectionPlatform_V1.8,2020.2.4,59.93874258521231,
,,,,,,,,,,,,,,,,,,,,,,,,,,test,80,32,0.63,3.5,0.01,0.01,0.01,100,0,100,0,10,9,start,4,lin,50.358697660192036,0,10,0.00041489183016346875,50.358697660192036,Simultaneous,Test,0.7026036999886855,0,,,,,,,,1,Simultaneous,0.8912509381337447,No,No,2020_Nov_09_1551,toneDetectionPlatform_V1.8,2020.2.4,59.93874258521231,
,,,,,,,,,,,,,,,,,,,,,,,,,,test,80,32,0.63,3.5,0.01,0.01,0.01,100,0,100,0,11,10,start,4,lin,50.46177884873153,1,11,0.00041984495839690687,50.46177884873153,Simultaneous,Test,0.2926210999721661,1,,,,,,,,1,Simultaneous,0.8912509381337447,No,No,2020_Nov_09_1551,toneDetectionPlatform_V1.8,2020.2.4,59.93874258521231,
,,,,,,,,,,,,,,,,,,,,,,,,,,test,80,32,0.63,3.5,0.01,0.01,0.01,100,0,100,0,12,11,start,4,lin,50.41301546422953,1,12,0.0004174945141065644,50.41301546422953,Simultaneous,Test,0.41466510004829615,1,,,,,,,,1,Simultaneous,0.8912509381337447,No,No,2020_Nov_09_1551,toneDetectionPlatform_V1.8,2020.2.4,59.93874258521231,
,,,,,,,,,,,,,,,,,,,,,,,,,,test,80,32,0.63,3.5,0.01,0.01,0.01,100,0,100,0,13,12,start,4,lin,50.37699708349844,0,13,0.00041576684525896544,50.37699708349844,Simultaneous,Test,0.8566597000462934,0,,,,,,,,1,Simultaneous,0.8912509381337447,No,No,2020_Nov_09_1551,toneDetectionPlatform_V1.8,2020.2.4,59.93874258521231,
,,,,,,,,,,,,,,,,,,,,,,,,,,test,80,32,0.63,3.5,0.01,0.01,0.01,100,0,100,0,14,13,start,4,lin,50.42208188593705,1,14,0.0004179305267289405,50.42208188593705,Simultaneous,Test,0.3859770999988541,1,,,,,,,,1,Simultaneous,0.8912509381337447,No,No,2020_Nov_09_1551,toneDetectionPlatform_V1.8,2020.2.4,59.93874258521231,
,,,,,,,,,,,,,,,,,,,,,,,,,,test,80,32,0.63,3.5,0.01,0.01,0.01,100,0,100,0,15,14,start,4,lin,50.39768040511424,1,15,0.00041675807201857484,50.39768040511424,Simultaneous,Test,0.4602461000904441,1,,,,,,,,1,Simultaneous,0.8912509381337447,No,No,2020_Nov_09_1551,toneDetectionPlatform_V1.8,2020.2.4,59.93874258521231,
,,,,,,,,,,,,,,,,,,,,,,,,,,test,80,32,0.63,3.5,0.01,0.01,0.01,100,0,100,0,16,15,start,4,lin,50.377876028845705,1,16,0.00041580891980051693,50.377876028845705,Simultaneous,Test,0.13447639998048544,1,,,,,,,,1,Simultaneous,0.8912509381337447,No,No,2020_Nov_09_1551,toneDetectionPlatform_V1.8,2020.2.4,59.93874258521231,
,,,,,,,,,,,,,,,,,,,,,,,,,,test,80,32,0.63,3.5,0.01,0.01,0.01,100,0,100,0,17,16,start,4,lin,50.36090181252041,1,17,0.00041499712747581534,50.36090181252041,Simultaneous,Test,0.28631189989391714,1,,,,,,,,1,Simultaneous,0.8912509381337447,No,No,2020_Nov_09_1551,toneDetectionPlatform_V1.8,2020.2.4,59.93874258521231,
,,,,,,,,,,,,,,,,,,,,,,,,,,test,80,32,0.63,3.5,0.01,0.01,0.01,100,0,100,0,18,17,start,4,lin,50.3457827259974,1,18,0.00041427539140036267,50.3457827259974,Simultaneous,Test,0.5377563000656664,1,,,,,,,,1,Simultaneous,0.8912509381337447,No,No,2020_Nov_09_1551,toneDetectionPlatform_V1.8,2020.2.4,59.93874258521231,
,,,,,,,,,,,,,,,,,,,,,,,,,,test,80,32,0.63,3.5,0.01,0.01,0.01,100,0,100,0,19,18,start,4,lin,50.332531328939034,1,19,0.00041364384501517925,50.332531328939034,Simultaneous,Test,0.7481824000133201,1,,,,,,,,1,Simultaneous,0.8912509381337447,No,No,2020_Nov_09_1551,toneDetectionPlatform_V1.8,2020.2.4,59.93874258521231,
,,,,,,,,,,,,,,,,,,,,,,,,,,test,80,32,0.63,3.5,0.01,0.01,0.01,100,0,100,0,20,19,start,4,lin,50.32005102547439,1,20,0.00041304992845509674,50.32005102547439,Simultaneous,Test,0.5048150999937207,1,,,,,,,,1,Simultaneous,0.8912509381337447,No,No,2020_Nov_09_1551,toneDetectionPlatform_V1.8,2020.2.4,59.93874258521231,
,,,,,,,,,,,,,,,,,,,,,,,,,,test,80,32,0.63,3.5,0.01,0.01,0.01,100,0,100,0,21,20,start,4,lin,50.30862267628844,1,21,0.0004125068206196708,50.30862267628844,Simultaneous,Test,0.3057313000317663,1,,,,,,,,1,Simultaneous,0.8912509381337447,No,No,2020_Nov_09_1551,toneDetectionPlatform_V1.8,2020.2.4,59.93874258521231,
,,,,,,,,,,,,,,,,,,,,,,,,,,test,80,32,0.63,3.5,0.01,0.01,0.01,100,0,100,0,22,21,start,4,lin,50.29796015573734,1,22,0.0004120007511097855,50.29796015573734,Simultaneous,Test,0.6586490999907255,1,,,,,,,,1,Simultaneous,0.8912509381337447,No,No,2020_Nov_09_1551,toneDetectionPlatform_V1.8,2020.2.4,59.93874258521231,
,,,,,,,,,,,,,,,,,,,,,,,,,,test,80,32,0.63,3.5,0.01,0.01,0.01,100,0,100,0,23,22,start,4,lin,50.287840241177676,1,23,0.000411521009295311,50.287840241177676,Simultaneous,Test,0.3056808999972418,1,,,,,,,,1,Simultaneous,0.8912509381337447,No,No,2020_Nov_09_1551,toneDetectionPlatform_V1.8,2020.2.4,59.93874258521231,
,,,,,,,,,,,,,,,,,,,,,,,,,,test,80,32,0.63,3.5,0.01,0.01,0.01,100,0,100,0,24,23,start,4,lin,50.278072249834864,1,24,0.0004110584804800195,50.278072249834864,Simultaneous,Test,0.21535940002650023,1,,,,,,,,1,Simultaneous,0.8912509381337447,No,No,2020_Nov_09_1551,toneDetectionPlatform_V1.8,2020.2.4,59.93874258521231,
,,,,,,,,,,,,,,,,,,,,,,,,,,test,80,32,0.63,3.5,0.01,0.01,0.01,100,0,100,0,25,24,start,4,lin,50.26847383271624,1,25,0.0004106044876580304,50.26847383271624,Simultaneous,Test,0.4254940999671817,1,,,,,,,,1,Simultaneous,0.8912509381337447,No,No,2020_Nov_09_1551,toneDetectionPlatform_V1.8,2020.2.4,59.93874258521231,
,,,,,,,,,,,,,,,,,,,,,,,,,,test,80,32,0.63,3.5,0.01,0.01,0.01,100,0,100,0,26,25,start,4,lin,50.258847403696294,1,26,0.0004101496735171716,50.258847403696294,Simultaneous,Test,0.6504845999879763,1,,,,,,,,1,Simultaneous,0.8912509381337447,No,No,2020_Nov_09_1551,toneDetectionPlatform_V1.8,2020.2.4,59.93874258521231,
,,,,,,,,,,,,,,,,,,,,,,,,,,test,80,32,0.63,3.5,0.01,0.01,0.01,100,0,100,0,27,26,start,4,lin,50.24895067554449,1,27,0.00040968261391020904,50.24895067554449,Simultaneous,Test,0.24917910003568977,1,,,,,,,,1,Simultaneous,0.8912509381337447,No,No,2020_Nov_09_1551,toneDetectionPlatform_V1.8,2020.2.4,59.93874258521231,
,,,,,,,,,,,,,,,,,,,,,,,,,,test,80,32,0.63,3.5,0.01,0.01,0.01,100,0,100,0,28,27,start,4,lin,50.23845621001645,1,28,0.0004091879260908465,50.23845621001645,Simultaneous,Test,0.3351827999576926,1,,,,,,,,1,Simultaneous,0.8912509381337447,No,No,2020_Nov_09_1551,toneDetectionPlatform_V1.8,2020.2.4,59.93874258521231,
,,,,,,,,,,,,,,,,,,,,,,,,,,test,80,32,0.63,3.5,0.01,0.01,0.01,100,0,100,0,29,28,start,4,lin,50.226896825418834,0,29,0.00040864373144503446,50.226896825418834,Simultaneous,Test,0.8180671000154689,0,,,,,,,,1,Simultaneous,0.8912509381337447,No,No,2020_Nov_09_1551,toneDetectionPlatform_V1.8,2020.2.4,59.93874258521231,
,,,,,,,,,,,,,,,,,,,,,,,,,,test,80,32,0.63,3.5,0.01,0.01,0.01,100,0,100,0,30,29,start,4,lin,50.246350533002854,1,30,0.00040955999276105884,50.246350533002854,Simultaneous,Test,0.4503418999956921,1,,,,,,,,1,Simultaneous,0.8912509381337447,No,No,2020_Nov_09_1551,toneDetectionPlatform_V1.8,2020.2.4,59.93874258521231,
,,,,,,,,,,,,,,,,,,,,,,,,,,,,,,,,,,,,,,,,,,,,,,,,Simultaneous,,,,196.42771710001398,None,e,0.9540589000098407,196.42771710001398,None,,1,Simultaneous,0.8912509381337447,No,No,2020_Nov_09_1551,toneDetectionPlatform_V1.8,2020.2.4,59.93874258521231,
